"sub" "trial" "block" "trialpblock" "congruency" "color" "blur" "file" "response" "choice" "rt" "accuracy" "toofast" "toofastN" "accN"
1 1 1 1 2 1 1 "redblue_4.jpg" 0 "left" 7.53299 1 0 0 1
1 2 1 2 1 2 3 "redred_2.jpg" 0 "left" 6.599783 0 0 0 1
1 3 1 3 1 1 1 "blueblue_4.jpg" 0 "left" 1.179762 1 0 0 2
1 4 1 4 1 1 1 "blueblue_4.jpg" 0 "left" 0.765448 1 0 0 3
1 5 1 5 2 1 4 "redblue_1.jpg" 0 "left" 0.891405 1 0 0 4
1 6 1 6 2 1 3 "redblue_2.jpg" 0 "left" 0.421995 1 0 0 5
1 7 1 7 2 2 3 "bluered_2.jpg" 0 "left" 8.676996 0 0 0 5
1 8 1 8 1 1 4 "blueblue_1.jpg" 0 "left" 0.737738 1 0 0 6
1 9 1 9 1 2 2 "redred_3.jpg" 0 "left" 6.197203 0 0 0 6
1 10 1 10 1 2 4 "redred_1.jpg" 0 "left" 14.355314 0 0 0 6
1 11 1 11 1 2 4 "redred_1.jpg" 0 "left" 18.17172 0 0 0 6
1 12 1 12 2 2 3 "bluered_2.jpg" 1 "right" 23.00868 1 0 0 7
1 13 1 13 2 2 4 "bluered_1.jpg" 1 "right" 2.118686 1 0 0 8
1 14 1 14 1 2 1 "redred_4.jpg" 1 "right" 0.482258 1 0 0 9
1 15 1 15 2 2 2 "bluered_3.jpg" 1 "right" 0.49364 1 0 0 10
1 16 1 16 2 2 3 "bluered_2.jpg" 1 "right" 0.449744 1 0 0 11
1 17 1 17 1 2 4 "redred_1.jpg" 1 "right" 0.349107 1 0 0 12
1 18 1 18 1 1 2 "blueblue_3.jpg" 0 "left" 0.320847 1 0 0 13
1 19 1 19 1 1 3 "blueblue_2.jpg" 0 "left" 0.421051 1 0 0 14
1 20 1 20 2 2 1 "bluered_4.jpg" 1 "right" 0.343527 1 0 0 15
1 21 1 21 2 2 3 "bluered_2.jpg" 1 "right" 0.665585 1 0 0 16
1 22 1 22 2 2 4 "bluered_1.jpg" 1 "right" 0.350148 1 0 0 17
1 23 1 23 2 2 1 "bluered_4.jpg" 1 "right" 0.371253 1 0 0 18
1 24 1 24 1 1 2 "blueblue_3.jpg" 0 "left" 0.344657 1 0 0 19
1 25 1 25 2 1 2 "redblue_3.jpg" 0 "left" 0.341612 1 0 0 20
1 26 1 26 1 2 2 "redred_3.jpg" 1 "right" 0.372131 1 0 0 21
1 27 1 27 2 1 3 "redblue_2.jpg" 0 "left" 0.354554 1 0 0 22
1 28 1 28 1 1 2 "blueblue_3.jpg" 0 "left" 0.377971 1 0 0 23
1 29 1 29 2 1 3 "redblue_2.jpg" 0 "left" 0.399151 1 0 0 24
1 30 1 30 2 2 3 "bluered_2.jpg" 1 "right" 0.337841 1 0 0 25
1 31 1 31 2 1 4 "redblue_1.jpg" 0 "left" 0.344311 1 0 0 26
1 32 1 32 2 2 2 "bluered_3.jpg" 1 "right" 0.293645 1 0 0 27
1 33 1 33 1 2 4 "redred_1.jpg" 1 "right" 0.317556 1 0 0 28
1 34 1 34 1 1 1 "blueblue_4.jpg" 0 "left" 0.328398 1 0 0 29
1 35 1 35 1 2 1 "redred_4.jpg" 1 "right" 0.371613 1 0 0 30
1 36 1 36 2 2 4 "bluered_1.jpg" 1 "right" 0.354834 1 0 0 31
1 37 1 37 1 1 2 "blueblue_3.jpg" 0 "left" 0.32761 1 0 0 32
1 38 1 38 1 2 3 "redred_2.jpg" 1 "right" 0.332656 1 0 0 33
1 39 1 39 2 1 3 "redblue_2.jpg" 0 "left" 0.338569 1 0 0 34
1 40 1 40 2 2 4 "bluered_1.jpg" 1 "right" 0.272094 1 0 0 35
1 41 1 41 2 1 3 "redblue_2.jpg" 0 "left" 0.332571 1 0 0 36
1 42 1 42 1 2 1 "redred_4.jpg" 1 "right" 0.366014 1 0 0 37
1 43 1 43 2 1 3 "redblue_2.jpg" 0 "left" 0.316603 1 0 0 38
1 44 1 44 1 1 4 "blueblue_1.jpg" 0 "left" 0.361249 1 0 0 39
1 45 1 45 2 2 2 "bluered_3.jpg" 1 "right" 0.366468 1 0 0 40
1 46 1 46 1 2 2 "redred_3.jpg" 1 "right" 0.310997 1 0 0 41
1 47 1 47 1 1 3 "blueblue_2.jpg" 0 "left" 0.338075 1 0 0 42
1 48 1 48 1 1 2 "blueblue_3.jpg" 0 "left" 0.421542 1 0 0 43
1 49 1 49 1 2 4 "redred_1.jpg" 1 "right" 0.365433 1 0 0 44
1 50 1 50 1 1 2 "blueblue_3.jpg" 0 "left" 0.333185 1 0 0 45
1 51 1 51 1 1 3 "blueblue_2.jpg" 0 "left" 0.525459 1 0 0 46
1 52 1 52 1 2 2 "redred_3.jpg" 1 "right" 0.531368 1 0 0 47
1 53 1 53 1 2 2 "redred_3.jpg" 1 "right" 0.653786 1 0 0 48
1 54 1 54 2 1 2 "redblue_3.jpg" 0 "left" 0.359825 1 0 0 49
1 55 1 55 1 1 1 "blueblue_4.jpg" 0 "left" 0.28368 1 0 0 50
1 56 1 56 2 2 2 "bluered_3.jpg" 1 "right" 0.387543 1 0 0 51
1 57 1 57 2 1 1 "redblue_4.jpg" 0 "left" 0.36056 1 0 0 52
1 58 1 58 2 2 4 "bluered_1.jpg" 0 "left" 0.354338 0 0 0 52
1 59 1 59 2 2 1 "bluered_4.jpg" 1 "right" 0.879036 1 0 0 53
1 60 1 60 1 1 1 "blueblue_4.jpg" 0 "left" 0.310322 1 0 0 54
1 61 1 61 1 2 1 "redred_4.jpg" 1 "right" 0.362176 1 0 0 55
1 62 1 62 2 2 1 "bluered_4.jpg" 1 "right" 0.393267 1 0 0 56
1 63 1 63 2 1 3 "redblue_2.jpg" 0 "left" 0.420888 1 0 0 57
1 64 1 64 1 1 3 "blueblue_2.jpg" 0 "left" 0.964354 1 0 0 58
1 65 1 65 2 2 2 "bluered_3.jpg" 1 "right" 0.43216 1 0 0 59
1 66 1 66 1 1 4 "blueblue_1.jpg" 0 "left" 0.376984 1 0 0 60
1 67 1 67 2 2 2 "bluered_3.jpg" 1 "right" 0.426598 1 0 0 61
1 68 1 68 1 2 4 "redred_1.jpg" 1 "right" 0.454243 1 0 0 62
1 69 1 69 1 2 1 "redred_4.jpg" 1 "right" 0.39973 1 0 0 63
1 70 1 70 1 1 3 "blueblue_2.jpg" 0 "left" 0.387923 1 0 0 64
1 71 1 71 1 1 3 "blueblue_2.jpg" 0 "left" 0.526021 1 0 0 65
1 72 1 72 2 2 2 "bluered_3.jpg" 1 "right" 0.49933 1 0 0 66
1 73 1 73 2 2 4 "bluered_1.jpg" 1 "right" 0.438629 1 0 0 67
1 74 1 74 2 1 1 "redblue_4.jpg" 0 "left" 0.382052 1 0 0 68
1 75 1 75 2 2 3 "bluered_2.jpg" 1 "right" 0.355318 1 0 0 69
1 76 1 76 2 2 2 "bluered_3.jpg" 1 "right" 0.349093 1 0 0 70
1 77 1 77 2 1 4 "redblue_1.jpg" 0 "left" 0.366701 1 0 0 71
1 78 1 78 2 1 1 "redblue_4.jpg" 0 "left" 0.471282 1 0 0 72
1 79 1 79 1 1 3 "blueblue_2.jpg" 0 "left" 0.454387 1 0 0 73
1 80 1 80 2 1 3 "redblue_2.jpg" 0 "left" 0.405403 1 0 0 74
1 81 1 81 2 1 2 "redblue_3.jpg" 0 "left" 0.405484 1 0 0 75
1 82 1 82 1 1 3 "blueblue_2.jpg" 0 "left" 0.360161 1 0 0 76
1 83 1 83 1 2 4 "redred_1.jpg" 1 "right" 0.571267 1 0 0 77
1 84 1 84 2 1 1 "redblue_4.jpg" 0 "left" 0.377019 1 0 0 78
1 85 1 85 2 1 2 "redblue_3.jpg" 0 "left" 0.387504 1 0 0 79
1 86 1 86 2 2 2 "bluered_3.jpg" 1 "right" 0.271038 1 0 0 80
1 87 1 87 2 2 3 "bluered_2.jpg" 1 "right" 0.332169 1 0 0 81
1 88 1 88 2 1 4 "redblue_1.jpg" 0 "left" 0.398608 1 0 0 82
1 89 1 89 1 1 1 "blueblue_4.jpg" 0 "left" 0.343599 1 0 0 83
1 90 1 90 2 1 1 "redblue_4.jpg" 0 "left" 0.36526 1 0 0 84
1 91 1 91 1 2 1 "redred_4.jpg" 1 "right" 0.32219 1 0 0 85
1 92 1 92 1 2 2 "redred_3.jpg" 1 "right" 0.327502 1 0 0 86
1 93 1 93 1 2 3 "redred_2.jpg" 1 "right" 0.33318 1 0 0 87
1 94 1 94 2 2 3 "bluered_2.jpg" 1 "right" 0.316594 1 0 0 88
1 95 1 95 2 1 3 "redblue_2.jpg" 0 "left" 0.382954 1 0 0 89
1 96 1 96 2 2 2 "bluered_3.jpg" 1 "right" 0.449902 1 0 0 90
1 97 1 97 1 2 4 "redred_1.jpg" 1 "right" 0.398558 1 0 0 91
1 98 1 98 1 2 1 "redred_4.jpg" 1 "right" 0.599659 1 0 0 92
1 99 1 99 2 1 2 "redblue_3.jpg" 0 "left" 0.387587 1 0 0 93
1 100 1 100 2 1 3 "redblue_2.jpg" 0 "left" 0.316485 1 0 0 94
1 101 1 101 1 2 1 "redred_4.jpg" 1 "right" 0.422002 1 0 0 95
1 102 1 102 1 1 1 "blueblue_4.jpg" 0 "left" 0.410903 1 0 0 96
1 103 1 103 1 2 4 "redred_1.jpg" 1 "right" 0.448614 1 0 0 97
1 104 1 104 1 1 4 "blueblue_1.jpg" 0 "left" 0.377667 1 0 0 98
1 105 1 105 2 1 4 "redblue_1.jpg" 0 "left" 0.381579 1 0 0 99
1 106 1 106 2 2 4 "bluered_1.jpg" 1 "right" 0.414684 1 0 0 100
1 107 1 107 1 1 1 "blueblue_4.jpg" 0 "left" 0.349735 1 0 0 101
1 108 1 108 1 1 1 "blueblue_4.jpg" 0 "left" 0.321441 1 0 0 102
1 109 1 109 2 1 1 "redblue_4.jpg" 0 "left" 0.365863 1 0 0 103
1 110 1 110 2 2 3 "bluered_2.jpg" 1 "right" 0.394569 1 0 0 104
1 111 1 111 1 1 1 "blueblue_4.jpg" 0 "left" 0.482174 1 0 0 105
1 112 1 112 1 2 1 "redred_4.jpg" 1 "right" 0.366768 1 0 0 106
1 113 1 113 1 1 4 "blueblue_1.jpg" 0 "left" 0.415388 1 0 0 107
1 114 1 114 2 2 1 "bluered_4.jpg" 1 "right" 0.343416 1 0 0 108
1 115 1 115 1 1 4 "blueblue_1.jpg" 0 "left" 0.277467 1 0 0 109
1 116 1 116 2 1 4 "redblue_1.jpg" 0 "left" 0.481969 1 0 0 110
1 117 1 117 2 1 4 "redblue_1.jpg" 0 "left" 0.36581 1 0 0 111
1 118 1 118 2 1 1 "redblue_4.jpg" 0 "left" 0.327056 1 0 0 112
1 119 1 119 2 2 3 "bluered_2.jpg" 1 "right" 0.399132 1 0 0 113
1 120 1 120 2 1 4 "redblue_1.jpg" 0 "left" 0.449213 1 0 0 114
1 121 1 121 2 2 3 "bluered_2.jpg" 1 "right" 0.349217 1 0 0 115
1 122 1 122 1 1 3 "blueblue_2.jpg" 0 "left" 0.422382 1 0 0 116
1 123 1 123 2 2 4 "bluered_1.jpg" 1 "right" 0.360573 1 0 0 117
1 124 1 124 1 1 1 "blueblue_4.jpg" 0 "left" 0.404241 1 0 0 118
1 125 1 125 2 2 4 "bluered_1.jpg" 1 "right" 0.37673 1 0 0 119
1 126 1 126 2 2 4 "bluered_1.jpg" 1 "right" 0.426468 1 0 0 120
1 127 1 127 2 2 3 "bluered_2.jpg" 1 "right" 0.321887 1 0 0 121
1 128 1 128 1 2 4 "redred_1.jpg" 1 "right" 0.310033 1 0 0 122
1 129 2 1 1 1 1 "blueblue_4.jpg" 0 "left" 1.94911 1 0 0 123
1 130 2 2 2 2 2 "bluered_3.jpg" 1 "right" 0.48144 1 0 0 124
1 131 2 3 1 2 1 "redred_4.jpg" 1 "right" 0.31631 1 0 0 125
1 132 2 4 2 2 4 "bluered_1.jpg" 1 "right" 0.337853 1 0 0 126
1 133 2 5 2 2 3 "bluered_2.jpg" 1 "right" 0.38246 1 0 0 127
1 134 2 6 2 1 4 "redblue_1.jpg" 0 "left" 0.294572 1 0 0 128
1 135 2 7 2 2 3 "bluered_2.jpg" 1 "right" 0.354442 1 0 0 129
1 136 2 8 1 2 3 "redred_2.jpg" 1 "right" 0.299276 1 0 0 130
1 137 2 9 2 2 2 "bluered_3.jpg" 1 "right" 0.393366 1 0 0 131
1 138 2 10 1 2 2 "redred_3.jpg" 1 "right" 0.337781 1 0 0 132
1 139 2 11 2 1 4 "redblue_1.jpg" 0 "left" 0.354279 1 0 0 133
1 140 2 12 1 2 4 "redred_1.jpg" 1 "right" 0.27711 1 0 0 134
1 141 2 13 1 1 1 "blueblue_4.jpg" 0 "left" 0.371164 1 0 0 135
1 142 2 14 1 2 1 "redred_4.jpg" 1 "right" 0.355113 1 0 0 136
1 143 2 15 2 1 1 "redblue_4.jpg" 0 "left" 0.366741 1 0 0 137
1 144 2 16 2 2 4 "bluered_1.jpg" 1 "right" 0.38218 1 0 0 138
1 145 2 17 2 2 2 "bluered_3.jpg" 0 "left" 0.333402 0 0 0 138
1 146 2 18 1 2 4 "redred_1.jpg" 1 "right" 0.476605 1 0 0 139
1 147 2 19 1 2 3 "redred_2.jpg" 1 "right" 0.398756 1 0 0 140
1 148 2 20 1 1 4 "blueblue_1.jpg" 0 "left" 0.332541 1 0 0 141
1 149 2 21 1 2 1 "redred_4.jpg" 1 "right" 0.475854 1 0 0 142
1 150 2 22 1 1 2 "blueblue_3.jpg" 0 "left" 0.415064 1 0 0 143
1 151 2 23 2 2 2 "bluered_3.jpg" 1 "right" 0.415079 1 0 0 144
1 152 2 24 2 1 1 "redblue_4.jpg" 0 "left" 0.300612 1 0 0 145
1 153 2 25 2 1 3 "redblue_2.jpg" 0 "left" 0.454011 1 0 0 146
1 154 2 26 2 2 1 "bluered_4.jpg" 1 "right" 0.531667 1 0 0 147
1 155 2 27 2 2 2 "bluered_3.jpg" 1 "right" 0.797596 1 0 0 148
1 156 2 28 1 2 3 "redred_2.jpg" 1 "right" 0.409211 1 0 0 149
1 157 2 29 1 2 1 "redred_4.jpg" 1 "right" 0.426439 1 0 0 150
1 158 2 30 1 1 2 "blueblue_3.jpg" 0 "left" 0.409878 1 0 0 151
1 159 2 31 1 2 4 "redred_1.jpg" 1 "right" 0.704412 1 0 0 152
1 160 2 32 2 1 4 "redblue_1.jpg" 0 "left" 0.399071 1 0 0 153
1 161 2 33 2 2 2 "bluered_3.jpg" 1 "right" 0.310067 1 0 0 154
1 162 2 34 1 2 4 "redred_1.jpg" 0 "left" 0.359934 0 0 0 154
1 163 2 35 2 1 3 "redblue_2.jpg" 0 "left" 0.403715 1 0 0 155
1 164 2 36 1 1 1 "blueblue_4.jpg" 0 "left" 0.399187 1 0 0 156
1 165 2 37 2 2 4 "bluered_1.jpg" 1 "right" 0.360164 1 0 0 157
1 166 2 38 1 1 1 "blueblue_4.jpg" 0 "left" 0.482068 1 0 0 158
1 167 2 39 2 1 2 "redblue_3.jpg" 0 "left" 0.537055 1 0 0 159
1 168 2 40 2 1 1 "redblue_4.jpg" 0 "left" 0.377178 1 0 0 160
1 169 2 41 2 2 4 "bluered_1.jpg" 1 "right" 0.421445 1 0 0 161
1 170 2 42 2 1 4 "redblue_1.jpg" 0 "left" 0.370806 1 0 0 162
1 171 2 43 2 1 3 "redblue_2.jpg" 0 "left" 0.343693 1 0 0 163
1 172 2 44 2 2 1 "bluered_4.jpg" 1 "right" 0.37076 1 0 0 164
1 173 2 45 1 1 1 "blueblue_4.jpg" 0 "left" 0.524955 1 0 0 165
1 174 2 46 1 1 1 "blueblue_4.jpg" 0 "left" 0.525897 1 0 0 166
1 175 2 47 2 1 1 "redblue_4.jpg" 0 "left" 0.409721 1 0 0 167
1 176 2 48 1 2 3 "redred_2.jpg" 1 "right" 0.459196 1 0 0 168
1 177 2 49 2 1 3 "redblue_2.jpg" 0 "left" 0.387862 1 0 0 169
1 178 2 50 1 1 1 "blueblue_4.jpg" 0 "left" 0.520558 1 0 0 170
1 179 2 51 1 1 1 "blueblue_4.jpg" 0 "left" 0.365804 1 0 0 171
1 180 2 52 1 1 2 "blueblue_3.jpg" 0 "left" 0.420935 1 0 0 172
1 181 2 53 2 1 3 "redblue_2.jpg" 0 "left" 0.332512 1 0 0 173
1 182 2 54 1 2 3 "redred_2.jpg" 1 "right" 0.333182 1 0 0 174
1 183 2 55 1 1 3 "blueblue_2.jpg" 0 "left" 0.371586 1 0 0 175
1 184 2 56 1 2 2 "redred_3.jpg" 1 "right" 0.444227 1 0 0 176
1 185 2 57 2 1 3 "redblue_2.jpg" 0 "left" 0.460881 1 0 0 177
1 186 2 58 1 2 1 "redred_4.jpg" 1 "right" 0.404177 1 0 0 178
1 187 2 59 2 1 3 "redblue_2.jpg" 0 "left" 0.393049 1 0 0 179
1 188 2 60 1 2 1 "redred_4.jpg" 1 "right" 0.337959 1 0 0 180
1 189 2 61 2 2 1 "bluered_4.jpg" 1 "right" 0.315544 1 0 0 181
1 190 2 62 1 1 2 "blueblue_3.jpg" 0 "left" 0.299777 1 0 0 182
1 191 2 63 1 1 3 "blueblue_2.jpg" 0 "left" 0.282665 1 0 0 183
1 192 2 64 2 2 1 "bluered_4.jpg" 1 "right" 0.349201 1 0 0 184
1 193 2 65 2 1 4 "redblue_1.jpg" 0 "left" 0.337802 1 0 0 185
1 194 2 66 2 2 1 "bluered_4.jpg" 1 "right" 0.453553 1 0 0 186
1 195 2 67 2 2 4 "bluered_1.jpg" 1 "right" 0.37228 1 0 0 187
1 196 2 68 1 2 2 "redred_3.jpg" 1 "right" 0.370896 1 0 0 188
1 197 2 69 1 1 1 "blueblue_4.jpg" 0 "left" 0.37092 1 0 0 189
1 198 2 70 1 2 3 "redred_2.jpg" 1 "right" 0.43705 1 0 0 190
1 199 2 71 2 1 2 "redblue_3.jpg" 0 "left" 0.372037 1 0 0 191
1 200 2 72 2 2 1 "bluered_4.jpg" 1 "right" 0.370992 1 0 0 192
1 201 2 73 2 1 4 "redblue_1.jpg" 0 "left" 0.405337 1 0 0 193
1 202 2 74 1 1 1 "blueblue_4.jpg" 0 "left" 0.454768 1 0 0 194
1 203 2 75 1 2 3 "redred_2.jpg" 1 "right" 0.398687 1 0 0 195
1 204 2 76 2 1 1 "redblue_4.jpg" 0 "left" 0.398689 1 0 0 196
1 205 2 77 2 2 4 "bluered_1.jpg" 1 "right" 0.420209 1 0 0 197
1 206 2 78 1 1 1 "blueblue_4.jpg" 0 "left" 0.394308 1 0 0 198
1 207 2 79 1 1 3 "blueblue_2.jpg" 0 "left" 0.433272 1 0 0 199
1 208 2 80 1 1 4 "blueblue_1.jpg" 0 "left" 0.37117 1 0 0 200
1 209 2 81 1 1 4 "blueblue_1.jpg" 0 "left" 0.349847 1 0 0 201
1 210 2 82 1 1 1 "blueblue_4.jpg" 0 "left" 0.354665 1 0 0 202
1 211 2 83 2 1 3 "redblue_2.jpg" 0 "left" 0.299063 1 0 0 203
1 212 2 84 1 2 3 "redred_2.jpg" 1 "right" 0.404388 1 0 0 204
1 213 2 85 2 1 2 "redblue_3.jpg" 0 "left" 0.343216 1 0 0 205
1 214 2 86 2 1 2 "redblue_3.jpg" 0 "left" 0.354841 1 0 0 206
1 215 2 87 1 1 4 "blueblue_1.jpg" 0 "left" 0.360787 1 0 0 207
1 216 2 88 2 2 1 "bluered_4.jpg" 1 "right" 0.321012 1 0 0 208
1 217 2 89 2 1 1 "redblue_4.jpg" 0 "left" 0.448208 1 0 0 209
1 218 2 90 1 1 1 "blueblue_4.jpg" 0 "left" 0.426385 1 0 0 210
1 219 2 91 1 2 3 "redred_2.jpg" 1 "right" 0.37074 1 0 0 211
1 220 2 92 1 1 4 "blueblue_1.jpg" 0 "left" 0.360347 1 0 0 212
1 221 2 93 2 1 3 "redblue_2.jpg" 0 "left" 0.320531 1 0 0 213
1 222 2 94 2 2 1 "bluered_4.jpg" 1 "right" 0.332214 1 0 0 214
1 223 2 95 2 1 3 "redblue_2.jpg" 0 "left" 0.27687 1 0 0 215
1 224 2 96 1 2 1 "redred_4.jpg" 1 "right" 0.415426 1 0 0 216
1 225 2 97 1 2 2 "redred_3.jpg" 1 "right" 0.354124 1 0 0 217
1 226 2 98 2 1 2 "redblue_3.jpg" 0 "left" 0.326622 1 0 0 218
1 227 2 99 1 1 2 "blueblue_3.jpg" 1 "right" 0.399296 0 0 0 218
1 228 2 100 2 2 4 "bluered_1.jpg" 1 "right" 0.470911 1 0 0 219
1 229 2 101 1 1 4 "blueblue_1.jpg" 0 "left" 0.348747 1 0 0 220
1 230 2 102 1 1 2 "blueblue_3.jpg" 0 "left" 0.3377 1 0 0 221
1 231 2 103 2 1 2 "redblue_3.jpg" 0 "left" 0.305321 1 0 0 222
1 232 2 104 1 1 4 "blueblue_1.jpg" 0 "left" 0.38195 1 0 0 223
1 233 2 105 1 2 2 "redred_3.jpg" 1 "right" 0.409295 1 0 0 224
1 234 2 106 1 2 3 "redred_2.jpg" 1 "right" 0.376818 1 0 0 225
1 235 2 107 1 2 4 "redred_1.jpg" 1 "right" 0.741244 1 0 0 226
1 236 2 108 2 2 4 "bluered_1.jpg" 1 "right" 0.360227 1 0 0 227
1 237 2 109 1 2 4 "redred_1.jpg" 1 "right" 0.332013 1 0 0 228
1 238 2 110 1 1 1 "blueblue_4.jpg" 0 "left" 0.365414 1 0 0 229
1 239 2 111 1 2 4 "redred_1.jpg" 1 "right" 0.431629 1 0 0 230
1 240 2 112 1 2 4 "redred_1.jpg" 1 "right" 0.425958 1 0 0 231
1 241 2 113 1 2 3 "redred_2.jpg" 1 "right" 0.398731 1 0 0 232
1 242 2 114 1 1 1 "blueblue_4.jpg" 0 "left" 0.354394 1 0 0 233
1 243 2 115 1 2 3 "redred_2.jpg" 1 "right" 0.453751 1 0 0 234
1 244 2 116 2 2 1 "bluered_4.jpg" 1 "right" 0.304485 1 0 0 235
1 245 2 117 2 2 3 "bluered_2.jpg" 1 "right" 0.33244 1 0 0 236
1 246 2 118 2 1 2 "redblue_3.jpg" 0 "left" 0.309479 1 0 0 237
1 247 2 119 2 2 4 "bluered_1.jpg" 1 "right" 0.327945 1 0 0 238
1 248 2 120 1 2 2 "redred_3.jpg" 1 "right" 0.425946 1 0 0 239
1 249 2 121 2 1 1 "redblue_4.jpg" 0 "left" 0.376418 1 0 0 240
1 250 2 122 1 2 4 "redred_1.jpg" 1 "right" 0.425922 1 0 0 241
1 251 2 123 1 2 2 "redred_3.jpg" 0 "left" 0.348534 0 0 0 241
1 252 2 124 1 2 4 "redred_1.jpg" 1 "right" 0.453613 1 0 0 242
1 253 2 125 1 2 2 "redred_3.jpg" 1 "right" 0.376074 1 0 0 243
1 254 2 126 1 2 2 "redred_3.jpg" 1 "right" 0.37605 1 0 0 244
1 255 2 127 1 1 4 "blueblue_1.jpg" 0 "left" 0.304498 1 0 0 245
1 256 2 128 2 2 4 "bluered_1.jpg" 1 "right" 0.447537 1 0 0 246
1 257 3 1 1 2 1 "redred_4.jpg" 1 "right" 0.988536 1 0 0 247
1 258 3 2 2 1 3 "redblue_2.jpg" 0 "left" 0.397936 1 0 0 248
1 259 3 3 2 2 1 "bluered_4.jpg" 1 "right" 0.337643 1 0 0 249
1 260 3 4 1 2 3 "redred_2.jpg" 1 "right" 0.437079 1 0 0 250
1 261 3 5 1 1 4 "blueblue_1.jpg" 0 "left" 0.288463 1 0 0 251
1 262 3 6 2 2 3 "bluered_2.jpg" 1 "right" 0.558208 1 0 0 252
1 263 3 7 1 1 4 "blueblue_1.jpg" 1 "right" 0.414703 0 0 0 252
1 264 3 8 1 2 2 "redred_3.jpg" 1 "right" 0.502709 1 0 0 253
1 265 3 9 1 1 3 "blueblue_2.jpg" 0 "left" 0.420528 1 0 0 254
1 266 3 10 2 2 2 "bluered_3.jpg" 1 "right" 0.453705 1 0 0 255
1 267 3 11 1 2 3 "redred_2.jpg" 1 "right" 0.420894 1 0 0 256
1 268 3 12 1 1 4 "blueblue_1.jpg" 0 "left" 0.315508 1 0 0 257
1 269 3 13 2 2 1 "bluered_4.jpg" 1 "right" 0.537002 1 0 0 258
1 270 3 14 2 2 3 "bluered_2.jpg" 1 "right" 0.431612 1 0 0 259
1 271 3 15 1 2 1 "redred_4.jpg" 1 "right" 0.49841 1 0 0 260
1 272 3 16 2 2 4 "bluered_1.jpg" 1 "right" 0.388131 1 0 0 261
1 273 3 17 1 1 1 "blueblue_4.jpg" 0 "left" 0.343109 1 0 0 262
1 274 3 18 2 1 2 "redblue_3.jpg" 0 "left" 0.448161 1 0 0 263
1 275 3 19 1 2 2 "redred_3.jpg" 1 "right" 0.381968 1 0 0 264
1 276 3 20 1 1 2 "blueblue_3.jpg" 0 "left" 0.343762 1 0 0 265
1 277 3 21 1 2 4 "redred_1.jpg" 1 "right" 0.426396 1 0 0 266
1 278 3 22 1 1 2 "blueblue_3.jpg" 0 "left" 0.409274 1 0 0 267
1 279 3 23 2 1 3 "redblue_2.jpg" 0 "left" 0.309851 1 0 0 268
1 280 3 24 2 1 1 "redblue_4.jpg" 0 "left" 0.454421 1 0 0 269
1 281 3 25 2 1 4 "redblue_1.jpg" 0 "left" 0.309924 1 0 0 270
1 282 3 26 1 1 2 "blueblue_3.jpg" 0 "left" 0.287918 1 0 0 271
1 283 3 27 2 1 4 "redblue_1.jpg" 0 "left" 0.321068 1 0 0 272
1 284 3 28 1 2 2 "redred_3.jpg" 1 "right" 0.348856 1 0 0 273
1 285 3 29 1 2 2 "redred_3.jpg" 1 "right" 0.337765 1 0 0 274
1 286 3 30 2 1 2 "redblue_3.jpg" 0 "left" 0.34974 1 0 0 275
1 287 3 31 1 1 2 "blueblue_3.jpg" 0 "left" 0.597211 1 0 0 276
1 288 3 32 1 1 2 "blueblue_3.jpg" 0 "left" 0.370315 1 0 0 277
1 289 3 33 1 2 4 "redred_1.jpg" 1 "right" 0.349258 1 0 0 278
1 290 3 34 1 2 1 "redred_4.jpg" 1 "right" 0.410127 1 0 0 279
1 291 3 35 1 1 2 "blueblue_3.jpg" 0 "left" 0.393232 1 0 0 280
1 292 3 36 2 2 2 "bluered_3.jpg" 1 "right" 0.354691 1 0 0 281
1 293 3 37 2 2 3 "bluered_2.jpg" 1 "right" 0.34315 1 0 0 282
1 294 3 38 1 1 3 "blueblue_2.jpg" 0 "left" 0.366351 1 0 0 283
1 295 3 39 2 2 4 "bluered_1.jpg" 1 "right" 0.398766 1 0 0 284
1 296 3 40 1 2 4 "redred_1.jpg" 1 "right" 0.354705 1 0 0 285
1 297 3 41 1 1 2 "blueblue_3.jpg" 0 "left" 0.359856 1 0 0 286
1 298 3 42 2 1 2 "redblue_3.jpg" 0 "left" 0.409545 1 0 0 287
1 299 3 43 1 2 2 "redred_3.jpg" 1 "right" 0.641209 1 0 0 288
1 300 3 44 1 1 3 "blueblue_2.jpg" 0 "left" 0.454561 1 0 0 289
1 301 3 45 2 1 3 "redblue_2.jpg" 0 "left" 0.40423 1 0 0 290
1 302 3 46 1 2 4 "redred_1.jpg" 1 "right" 0.415411 1 0 0 291
1 303 3 47 1 1 3 "blueblue_2.jpg" 0 "left" 0.375878 1 0 0 292
1 304 3 48 2 2 2 "bluered_3.jpg" 1 "right" 0.343642 1 0 0 293
1 305 3 49 1 2 1 "redred_4.jpg" 1 "right" 0.492653 1 0 0 294
1 306 3 50 2 2 3 "bluered_2.jpg" 0 "left" 0.348689 0 0 0 294
1 307 3 51 1 1 3 "blueblue_2.jpg" 0 "left" 0.614991 1 0 0 295
1 308 3 52 2 2 1 "bluered_4.jpg" 1 "right" 0.393185 1 0 0 296
1 309 3 53 1 2 1 "redred_4.jpg" 1 "right" 0.718904 1 0 0 297
1 310 3 54 1 1 4 "blueblue_1.jpg" 0 "left" 0.354182 1 0 0 298
1 311 3 55 2 1 2 "redblue_3.jpg" 0 "left" 0.371042 1 0 0 299
1 312 3 56 1 2 3 "redred_2.jpg" 1 "right" 0.293685 1 0 0 300
1 313 3 57 1 2 2 "redred_3.jpg" 1 "right" 0.381813 1 0 0 301
1 314 3 58 2 2 1 "bluered_4.jpg" 1 "right" 0.332434 1 0 0 302
1 315 3 59 1 1 4 "blueblue_1.jpg" 0 "left" 0.370925 1 0 0 303
1 316 3 60 2 2 3 "bluered_2.jpg" 1 "right" 0.398484 1 0 0 304
1 317 3 61 1 1 4 "blueblue_1.jpg" 0 "left" 0.697104 1 0 0 305
1 318 3 62 1 2 1 "redred_4.jpg" 1 "right" 0.376951 1 0 0 306
1 319 3 63 1 2 4 "redred_1.jpg" 1 "right" 0.432143 1 0 0 307
1 320 3 64 2 1 4 "redblue_1.jpg" 0 "left" 0.3326 1 0 0 308
1 321 3 65 2 2 2 "bluered_3.jpg" 1 "right" 0.382195 1 0 0 309
1 322 3 66 1 1 3 "blueblue_2.jpg" 0 "left" 0.514261 1 0 0 310
1 323 3 67 2 2 3 "bluered_2.jpg" 1 "right" 0.359943 1 0 0 311
1 324 3 68 2 2 3 "bluered_2.jpg" 1 "right" 0.481523 1 0 0 312
1 325 3 69 1 2 4 "redred_1.jpg" 1 "right" 0.382443 1 0 0 313
1 326 3 70 2 1 4 "redblue_1.jpg" 0 "left" 0.32086 1 0 0 314
1 327 3 71 1 2 3 "redred_2.jpg" 1 "right" 0.41544 1 0 0 315
1 328 3 72 2 2 3 "bluered_2.jpg" 1 "right" 0.420345 1 0 0 316
1 329 3 73 1 1 4 "blueblue_1.jpg" 0 "left" 0.437099 1 0 0 317
1 330 3 74 1 1 4 "blueblue_1.jpg" 0 "left" 0.448102 1 0 0 318
1 331 3 75 1 1 3 "blueblue_2.jpg" 0 "left" 0.415572 1 0 0 319
1 332 3 76 2 1 1 "redblue_4.jpg" 0 "left" 0.35971 1 0 0 320
1 333 3 77 2 2 4 "bluered_1.jpg" 1 "right" 0.370902 1 0 0 321
1 334 3 78 1 2 2 "redred_3.jpg" 1 "right" 0.459869 1 0 0 322
1 335 3 79 1 2 4 "redred_1.jpg" 1 "right" 0.420454 1 0 0 323
1 336 3 80 2 1 4 "redblue_1.jpg" 0 "left" 0.348939 1 0 0 324
1 337 3 81 2 1 4 "redblue_1.jpg" 0 "left" 0.344135 1 0 0 325
1 338 3 82 1 1 2 "blueblue_3.jpg" 0 "left" 0.337941 1 0 0 326
1 339 3 83 1 2 3 "redred_2.jpg" 1 "right" 0.453323 1 0 0 327
1 340 3 84 2 1 3 "redblue_2.jpg" 0 "left" 0.398526 1 0 0 328
1 341 3 85 1 1 3 "blueblue_2.jpg" 0 "left" 0.338138 1 0 0 329
1 342 3 86 2 2 1 "bluered_4.jpg" 1 "right" 0.376506 1 0 0 330
1 343 3 87 2 2 1 "bluered_4.jpg" 1 "right" 0.387114 1 0 0 331
1 344 3 88 2 2 4 "bluered_1.jpg" 1 "right" 0.425947 1 0 0 332
1 345 3 89 2 1 1 "redblue_4.jpg" 0 "left" 0.293495 1 0 0 333
1 346 3 90 1 2 4 "redred_1.jpg" 0 "left" 0.354358 0 0 0 333
1 347 3 91 2 1 4 "redblue_1.jpg" 0 "left" 0.415295 1 0 0 334
1 348 3 92 1 1 2 "blueblue_3.jpg" 0 "left" 0.43307 1 0 0 335
1 349 3 93 1 2 4 "redred_1.jpg" 1 "right" 0.45919 1 0 0 336
1 350 3 94 1 1 1 "blueblue_4.jpg" 0 "left" 0.409794 1 0 0 337
1 351 3 95 2 2 3 "bluered_2.jpg" 1 "right" 0.421121 1 0 0 338
1 352 3 96 2 1 2 "redblue_3.jpg" 0 "left" 0.475442 1 0 0 339
1 353 3 97 2 1 3 "redblue_2.jpg" 0 "left" 0.536921 1 0 0 340
1 354 3 98 1 2 2 "redred_3.jpg" 1 "right" 0.492311 1 0 0 341
1 355 3 99 2 1 4 "redblue_1.jpg" 0 "left" 0.492329 1 0 0 342
1 356 3 100 2 1 3 "redblue_2.jpg" 0 "left" 0.398701 1 0 0 343
1 357 3 101 2 2 1 "bluered_4.jpg" 1 "right" 0.454291 1 0 0 344
1 358 3 102 1 2 3 "redred_2.jpg" 1 "right" 0.43771 1 0 0 345
1 359 3 103 2 1 2 "redblue_3.jpg" 0 "left" 0.387442 1 0 0 346
1 360 3 104 1 2 2 "redred_3.jpg" 0 "left" 0.409618 0 0 0 346
1 361 3 105 1 2 4 "redred_1.jpg" 1 "right" 0.69666 1 0 0 347
1 362 3 106 2 2 4 "bluered_1.jpg" 1 "right" 0.376773 1 0 0 348
1 363 3 107 1 1 1 "blueblue_4.jpg" 0 "left" 0.349173 1 0 0 349
1 364 3 108 2 2 3 "bluered_2.jpg" 1 "right" 0.558878 1 0 0 350
1 365 3 109 2 1 3 "redblue_2.jpg" 0 "left" 0.459275 1 0 0 351
1 366 3 110 1 1 4 "blueblue_1.jpg" 0 "left" 0.431992 1 0 0 352
1 367 3 111 1 1 2 "blueblue_3.jpg" 0 "left" 0.459256 1 0 0 353
1 368 3 112 1 1 3 "blueblue_2.jpg" 0 "left" 0.614261 1 0 0 354
1 369 3 113 2 1 1 "redblue_4.jpg" 0 "left" 0.454424 1 0 0 355
1 370 3 114 1 1 3 "blueblue_2.jpg" 0 "left" 0.531195 1 0 0 356
1 371 3 115 2 1 2 "redblue_3.jpg" 0 "left" 0.343393 1 0 0 357
1 372 3 116 2 2 1 "bluered_4.jpg" 1 "right" 0.34925 1 0 0 358
1 373 3 117 2 2 4 "bluered_1.jpg" 1 "right" 0.326773 1 0 0 359
1 374 3 118 2 2 3 "bluered_2.jpg" 1 "right" 0.360051 1 0 0 360
1 375 3 119 2 2 4 "bluered_1.jpg" 1 "right" 0.348861 1 0 0 361
1 376 3 120 2 1 4 "redblue_1.jpg" 0 "left" 0.354458 1 0 0 362
1 377 3 121 1 2 4 "redred_1.jpg" 1 "right" 0.398761 1 0 0 363
1 378 3 122 1 2 2 "redred_3.jpg" 1 "right" 0.426102 1 0 0 364
1 379 3 123 1 1 1 "blueblue_4.jpg" 0 "left" 0.381479 1 0 0 365
1 380 3 124 2 1 1 "redblue_4.jpg" 0 "left" 0.409937 1 0 0 366
1 381 3 125 2 2 2 "bluered_3.jpg" 1 "right" 0.377152 1 0 0 367
1 382 3 126 1 2 1 "redred_4.jpg" 1 "right" 0.432194 1 0 0 368
1 383 3 127 1 1 4 "blueblue_1.jpg" 0 "left" 0.481359 1 0 0 369
1 384 3 128 1 2 3 "redred_2.jpg" 1 "right" 0.681231 1 0 0 370
1 385 4 1 2 1 2 "redblue_3.jpg" 0 "left" 0.432303 1 0 0 371
1 386 4 2 2 2 2 "bluered_3.jpg" 1 "right" 0.365144 1 0 0 372
1 387 4 3 2 1 3 "redblue_2.jpg" 0 "left" 0.724934 1 0 0 373
1 388 4 4 2 2 3 "bluered_2.jpg" 1 "right" 0.630324 1 0 0 374
1 389 4 5 1 1 2 "blueblue_3.jpg" 0 "left" 0.599857 1 0 0 375
1 390 4 6 1 1 4 "blueblue_1.jpg" 0 "left" 0.497775 1 0 0 376
1 391 4 7 2 1 2 "redblue_3.jpg" 0 "left" 0.354212 1 0 0 377
1 392 4 8 2 1 3 "redblue_2.jpg" 0 "left" 0.382023 1 0 0 378
1 393 4 9 1 2 2 "redred_3.jpg" 1 "right" 0.541952 1 0 0 379
1 394 4 10 2 2 3 "bluered_2.jpg" 1 "right" 0.348712 1 0 0 380
1 395 4 11 2 1 3 "redblue_2.jpg" 0 "left" 0.315502 1 0 0 381
1 396 4 12 2 1 4 "redblue_1.jpg" 0 "left" 0.309983 1 0 0 382
1 397 4 13 1 2 2 "redred_3.jpg" 1 "right" 0.332127 1 0 0 383
1 398 4 14 1 1 4 "blueblue_1.jpg" 0 "left" 0.315596 1 0 0 384
1 399 4 15 1 1 4 "blueblue_1.jpg" 0 "left" 0.354795 1 0 0 385
1 400 4 16 2 2 2 "bluered_3.jpg" 1 "right" 0.354222 1 0 0 386
1 401 4 17 1 1 2 "blueblue_3.jpg" 0 "left" 0.332169 1 0 0 387
1 402 4 18 2 2 1 "bluered_4.jpg" 1 "right" 0.337776 1 0 0 388
1 403 4 19 1 2 1 "redred_4.jpg" 0 "left" 0.337674 0 0 0 388
1 404 4 20 1 1 1 "blueblue_4.jpg" 0 "left" 0.448166 1 0 0 389
1 405 4 21 2 2 1 "bluered_4.jpg" 1 "right" 0.603199 1 0 0 390
1 406 4 22 2 2 4 "bluered_1.jpg" 1 "right" 0.453646 1 0 0 391
1 407 4 23 2 2 2 "bluered_3.jpg" 1 "right" 0.404058 1 0 0 392
1 408 4 24 2 1 1 "redblue_4.jpg" 0 "left" 0.320833 1 0 0 393
1 409 4 25 1 2 1 "redred_4.jpg" 1 "right" 0.410293 1 0 0 394
1 410 4 26 2 2 4 "bluered_1.jpg" 1 "right" 0.404061 1 0 0 395
1 411 4 27 2 1 2 "redblue_3.jpg" 0 "left" 0.746533 1 0 0 396
1 412 4 28 2 2 2 "bluered_3.jpg" 1 "right" 0.404061 1 0 0 397
1 413 4 29 1 2 2 "redred_3.jpg" 1 "right" 0.49268 1 0 0 398
1 414 4 30 1 2 2 "redred_3.jpg" 1 "right" 0.348661 1 0 0 399
1 415 4 31 1 1 3 "blueblue_2.jpg" 0 "left" 0.426052 1 0 0 400
1 416 4 32 1 2 3 "redred_2.jpg" 1 "right" 0.348776 1 0 0 401
1 417 4 33 1 1 3 "blueblue_2.jpg" 0 "left" 0.277092 1 0 0 402
1 418 4 34 1 1 2 "blueblue_3.jpg" 0 "left" 0.338026 1 0 0 403
1 419 4 35 1 2 3 "redred_2.jpg" 1 "right" 0.349221 1 0 0 404
1 420 4 36 1 1 2 "blueblue_3.jpg" 0 "left" 0.531807 1 0 0 405
1 421 4 37 2 2 1 "bluered_4.jpg" 1 "right" 0.387536 1 0 0 406
1 422 4 38 2 1 3 "redblue_2.jpg" 0 "left" 0.762763 1 0 0 407
1 423 4 39 2 1 2 "redblue_3.jpg" 0 "left" 0.492127 1 0 0 408
1 424 4 40 1 1 3 "blueblue_2.jpg" 0 "left" 0.454072 1 0 0 409
1 425 4 41 2 1 2 "redblue_3.jpg" 0 "left" 0.470189 1 0 0 410
1 426 4 42 1 1 1 "blueblue_4.jpg" 0 "left" 0.282512 1 0 0 411
1 427 4 43 2 1 1 "redblue_4.jpg" 0 "left" 0.371101 1 0 0 412
1 428 4 44 1 1 3 "blueblue_2.jpg" 0 "left" 0.343135 1 0 0 413
1 429 4 45 2 2 2 "bluered_3.jpg" 1 "right" 0.337778 1 0 0 414
1 430 4 46 2 1 2 "redblue_3.jpg" 0 "left" 0.37605 1 0 0 415
1 431 4 47 2 1 4 "redblue_1.jpg" 0 "left" 0.398833 1 0 0 416
1 432 4 48 2 1 2 "redblue_3.jpg" 0 "left" 0.354393 1 0 0 417
1 433 4 49 1 2 2 "redred_3.jpg" 1 "right" 0.426373 1 0 0 418
1 434 4 50 1 2 1 "redred_4.jpg" 1 "right" 0.447668 1 0 0 419
1 435 4 51 1 1 3 "blueblue_2.jpg" 0 "left" 0.348674 1 0 0 420
1 436 4 52 2 2 2 "bluered_3.jpg" 1 "right" 0.420834 1 0 0 421
1 437 4 53 2 2 4 "bluered_1.jpg" 1 "right" 0.365289 1 0 0 422
1 438 4 54 2 1 2 "redblue_3.jpg" 0 "left" 0.348246 1 0 0 423
1 439 4 55 2 1 4 "redblue_1.jpg" 0 "left" 0.299599 1 0 0 424
1 440 4 56 1 2 2 "redred_3.jpg" 1 "right" 0.40443 1 0 0 425
1 441 4 57 1 2 4 "redred_1.jpg" 1 "right" 0.404168 1 0 0 426
1 442 4 58 1 1 1 "blueblue_4.jpg" 0 "left" 0.731062 1 0 0 427
1 443 4 59 1 2 2 "redred_3.jpg" 1 "right" 0.625158 1 0 0 428
1 444 4 60 2 1 4 "redblue_1.jpg" 0 "left" 0.420225 1 0 0 429
1 445 4 61 2 2 1 "bluered_4.jpg" 1 "right" 0.586616 1 0 0 430
1 446 4 62 2 1 4 "redblue_1.jpg" 0 "left" 0.387509 1 0 0 431
1 447 4 63 1 1 1 "blueblue_4.jpg" 0 "left" 0.525835 1 0 0 432
1 448 4 64 1 2 4 "redred_1.jpg" 1 "right" 0.32658 1 0 0 433
1 449 4 65 2 2 3 "bluered_2.jpg" 1 "right" 0.343398 1 0 0 434
1 450 4 66 2 2 2 "bluered_3.jpg" 1 "right" 0.420573 1 0 0 435
1 451 4 67 2 2 2 "bluered_3.jpg" 1 "right" 0.365208 1 0 0 436
1 452 4 68 1 1 1 "blueblue_4.jpg" 0 "left" 0.393571 1 0 0 437
1 453 4 69 1 2 1 "redred_4.jpg" 1 "right" 0.348918 1 0 0 438
1 454 4 70 2 1 1 "redblue_4.jpg" 0 "left" 0.415321 1 0 0 439
1 455 4 71 2 2 2 "bluered_3.jpg" 1 "right" 0.376112 1 0 0 440
1 456 4 72 1 2 4 "redred_1.jpg" 1 "right" 0.498691 1 0 0 441
1 457 4 73 2 2 3 "bluered_2.jpg" 0 "left" 0.393125 0 0 0 441
1 458 4 74 1 1 4 "blueblue_1.jpg" 0 "left" 0.531484 1 0 0 442
1 459 4 75 1 2 3 "redred_2.jpg" 1 "right" 0.691413 1 0 0 443
1 460 4 76 2 1 2 "redblue_3.jpg" 0 "left" 0.503727 1 0 0 444
1 461 4 77 2 2 3 "bluered_2.jpg" 1 "right" 0.420894 1 0 0 445
1 462 4 78 1 2 1 "redred_4.jpg" 0 "left" 0.33232 0 0 0 445
1 463 4 79 2 2 2 "bluered_3.jpg" 1 "right" 0.924708 1 0 0 446
1 464 4 80 2 1 2 "redblue_3.jpg" 0 "left" 0.365422 1 0 0 447
1 465 4 81 2 1 3 "redblue_2.jpg" 0 "left" 0.531957 1 0 0 448
1 466 4 82 1 1 1 "blueblue_4.jpg" 0 "left" 0.392995 1 0 0 449
1 467 4 83 2 1 1 "redblue_4.jpg" 0 "left" 0.448238 1 0 0 450
1 468 4 84 2 1 1 "redblue_4.jpg" 0 "left" 0.381889 1 0 0 451
1 469 4 85 1 2 3 "redred_2.jpg" 1 "right" 0.321088 1 0 0 452
1 470 4 86 1 1 3 "blueblue_2.jpg" 0 "left" 0.503465 1 0 0 453
1 471 4 87 2 2 4 "bluered_1.jpg" 1 "right" 0.498066 1 0 0 454
1 472 4 88 1 1 3 "blueblue_2.jpg" 0 "left" 0.509069 1 0 0 455
1 473 4 89 2 2 1 "bluered_4.jpg" 1 "right" 0.409734 1 0 0 456
1 474 4 90 2 1 2 "redblue_3.jpg" 0 "left" 1.249204 1 0 0 457
1 475 4 91 2 1 3 "redblue_2.jpg" 0 "left" 0.382034 1 0 0 458
1 476 4 92 1 2 2 "redred_3.jpg" 1 "right" 0.602667 1 0 0 459
1 477 4 93 2 2 4 "bluered_1.jpg" 1 "right" 0.442651 1 0 0 460
1 478 4 94 1 2 1 "redred_4.jpg" 1 "right" 0.387121 1 0 0 461
1 479 4 95 2 1 2 "redblue_3.jpg" 0 "left" 0.443221 1 0 0 462
1 480 4 96 2 1 1 "redblue_4.jpg" 0 "left" 0.331026 1 0 0 463
1 481 4 97 1 1 4 "blueblue_1.jpg" 0 "left" 0.436726 1 0 0 464
1 482 4 98 2 1 4 "redblue_1.jpg" 0 "left" 0.321422 1 0 0 465
1 483 4 99 1 1 4 "blueblue_1.jpg" 0 "left" 0.293717 1 0 0 466
1 484 4 100 2 1 1 "redblue_4.jpg" 0 "left" 0.332029 1 0 0 467
1 485 4 101 1 1 4 "blueblue_1.jpg" 0 "left" 0.348772 1 0 0 468
1 486 4 102 1 1 4 "blueblue_1.jpg" 0 "left" 0.337796 1 0 0 469
1 487 4 103 1 1 2 "blueblue_3.jpg" 0 "left" 0.315578 1 0 0 470
1 488 4 104 1 1 4 "blueblue_1.jpg" 0 "left" 0.326696 1 0 0 471
1 489 4 105 1 2 3 "redred_2.jpg" 1 "right" 0.321211 1 0 0 472
1 490 4 106 1 1 2 "blueblue_3.jpg" 0 "left" 0.36557 1 0 0 473
1 491 4 107 2 1 2 "redblue_3.jpg" 0 "left" 0.371011 1 0 0 474
1 492 4 108 2 2 1 "bluered_4.jpg" 1 "right" 0.288166 1 0 0 475
1 493 4 109 1 2 3 "redred_2.jpg" 1 "right" 0.321326 1 0 0 476
1 494 4 110 1 2 2 "redred_3.jpg" 1 "right" 0.30499 1 0 0 477
1 495 4 111 2 1 4 "redblue_1.jpg" 0 "left" 0.371101 1 0 0 478
1 496 4 112 2 2 4 "bluered_1.jpg" 1 "right" 0.387703 1 0 0 479
1 497 4 113 2 2 1 "bluered_4.jpg" 1 "right" 0.337993 1 0 0 480
1 498 4 114 1 2 2 "redred_3.jpg" 1 "right" 0.348939 1 0 0 481
1 499 4 115 2 1 2 "redblue_3.jpg" 0 "left" 0.387635 1 0 0 482
1 500 4 116 2 1 1 "redblue_4.jpg" 0 "left" 0.387092 1 0 0 483
1 501 4 117 1 1 4 "blueblue_1.jpg" 0 "left" 0.349316 1 0 0 484
1 502 4 118 1 2 2 "redred_3.jpg" 1 "right" 0.332178 1 0 0 485
1 503 4 119 1 2 1 "redred_4.jpg" 1 "right" 0.398521 1 0 0 486
1 504 4 120 2 2 4 "bluered_1.jpg" 1 "right" 0.354182 1 0 0 487
1 505 4 121 1 2 2 "redred_3.jpg" 1 "right" 0.354376 1 0 0 488
1 506 4 122 1 1 4 "blueblue_1.jpg" 0 "left" 0.365204 1 0 0 489
1 507 4 123 1 2 1 "redred_4.jpg" 0 "left" 0.337758 0 0 0 489
1 508 4 124 2 2 4 "bluered_1.jpg" 1 "right" 0.465715 1 0 0 490
1 509 4 125 1 1 3 "blueblue_2.jpg" 0 "left" 0.348753 1 0 0 491
1 510 4 126 2 1 1 "redblue_4.jpg" 0 "left" 0.437115 1 0 0 492
1 511 4 127 1 1 3 "blueblue_2.jpg" 0 "left" 0.342954 1 0 0 493
1 512 4 128 2 2 4 "bluered_1.jpg" 1 "right" 0.426118 1 0 0 494
1 513 5 1 2 1 1 "redblue_4.jpg" 0 "left" 0.487399 1 0 0 495
1 514 5 2 2 1 1 "redblue_4.jpg" 0 "left" 0.287758 1 0 0 496
1 515 5 3 1 2 3 "redred_2.jpg" 1 "right" 0.437135 1 0 0 497
1 516 5 4 2 1 4 "redblue_1.jpg" 0 "left" 0.382161 1 0 0 498
1 517 5 5 2 1 1 "redblue_4.jpg" 0 "left" 0.403636 1 0 0 499
1 518 5 6 1 1 3 "blueblue_2.jpg" 0 "left" 0.387919 1 0 0 500
1 519 5 7 2 1 3 "redblue_2.jpg" 0 "left" 0.448693 1 0 0 501
1 520 5 8 1 2 3 "redred_2.jpg" 1 "right" 0.674566 1 0 0 502
1 521 5 9 2 2 3 "bluered_2.jpg" 1 "right" 0.321163 1 0 0 503
1 522 5 10 1 2 4 "redred_1.jpg" 1 "right" 0.426028 1 0 0 504
1 523 5 11 1 1 1 "blueblue_4.jpg" 0 "left" 0.4092 1 0 0 505
1 524 5 12 2 2 1 "bluered_4.jpg" 0 "left" 0.498135 0 0 0 505
1 525 5 13 2 2 2 "bluered_3.jpg" 1 "right" 0.785229 1 0 0 506
1 526 5 14 1 1 3 "blueblue_2.jpg" 0 "left" 0.305119 1 0 0 507
1 527 5 15 1 1 4 "blueblue_1.jpg" 0 "left" 0.365232 1 0 0 508
1 528 5 16 1 2 2 "redred_3.jpg" 1 "right" 0.547964 1 0 0 509
1 529 5 17 2 1 1 "redblue_4.jpg" 0 "left" 0.509072 1 0 0 510
1 530 5 18 1 2 2 "redred_3.jpg" 1 "right" 0.327449 1 0 0 511
1 531 5 19 2 2 1 "bluered_4.jpg" 1 "right" 0.818301 1 0 0 512
1 532 5 20 2 1 4 "redblue_1.jpg" 0 "left" 0.436928 1 0 0 513
1 533 5 21 1 2 2 "redred_3.jpg" 1 "right" 0.592012 1 0 0 514
1 534 5 22 1 2 4 "redred_1.jpg" 1 "right" 0.581062 1 0 0 515
1 535 5 23 2 2 2 "bluered_3.jpg" 1 "right" 0.420101 1 0 0 516
1 536 5 24 1 2 3 "redred_2.jpg" 1 "right" 0.354161 1 0 0 517
1 537 5 25 2 2 4 "bluered_1.jpg" 1 "right" 0.326949 1 0 0 518
1 538 5 26 2 2 2 "bluered_3.jpg" 1 "right" 0.735944 1 0 0 519
1 539 5 27 1 1 1 "blueblue_4.jpg" 0 "left" 0.343444 1 0 0 520
1 540 5 28 1 2 3 "redred_2.jpg" 1 "right" 0.387487 1 0 0 521
1 541 5 29 2 1 2 "redblue_3.jpg" 0 "left" 0.425863 1 0 0 522
1 542 5 30 2 2 1 "bluered_4.jpg" 1 "right" 0.448259 1 0 0 523
1 543 5 31 1 1 2 "blueblue_3.jpg" 0 "left" 0.376111 1 0 0 524
1 544 5 32 2 1 4 "redblue_1.jpg" 0 "left" 0.592599 1 0 0 525
1 545 5 33 1 1 2 "blueblue_3.jpg" 0 "left" 0.420629 1 0 0 526
1 546 5 34 2 1 1 "redblue_4.jpg" 0 "left" 0.348804 1 0 0 527
1 547 5 35 1 2 3 "redred_2.jpg" 1 "right" 0.40958 1 0 0 528
1 548 5 36 1 1 1 "blueblue_4.jpg" 0 "left" 0.691327 1 0 0 529
1 549 5 37 1 2 4 "redred_1.jpg" 1 "right" 0.50886 1 0 0 530
1 550 5 38 1 1 2 "blueblue_3.jpg" 0 "left" 0.448545 1 0 0 531
1 551 5 39 2 2 2 "bluered_3.jpg" 1 "right" 0.548788 1 0 0 532
1 552 5 40 1 2 3 "redred_2.jpg" 1 "right" 0.465048 1 0 0 533
1 553 5 41 2 2 3 "bluered_2.jpg" 1 "right" 0.38235 1 0 0 534
1 554 5 42 1 2 4 "redred_1.jpg" 1 "right" 0.360452 1 0 0 535
1 555 5 43 2 1 3 "redblue_2.jpg" 0 "left" 0.348993 1 0 0 536
1 556 5 44 1 1 2 "blueblue_3.jpg" 1 "right" 0.387647 0 0 0 536
1 557 5 45 2 1 2 "redblue_3.jpg" 0 "left" 0.465327 1 0 0 537
1 558 5 46 1 2 3 "redred_2.jpg" 1 "right" 0.431851 1 0 0 538
1 559 5 47 1 1 3 "blueblue_2.jpg" 0 "left" 1.122834 1 0 0 539
1 560 5 48 2 1 2 "redblue_3.jpg" 0 "left" 0.415173 1 0 0 540
1 561 5 49 1 2 1 "redred_4.jpg" 1 "right" 0.370945 1 0 0 541
1 562 5 50 1 2 3 "redred_2.jpg" 1 "right" 0.359837 1 0 0 542
1 563 5 51 2 2 1 "bluered_4.jpg" 0 "left" 1.028107 0 0 0 542
1 564 5 52 1 2 1 "redred_4.jpg" 0 "left" 1.034245 0 0 0 542
1 565 5 53 1 2 4 "redred_1.jpg" 0 "left" 0.304713 0 0 0 542
1 566 5 54 1 1 3 "blueblue_2.jpg" 0 "left" 0.762521 1 0 0 543
1 567 5 55 2 1 2 "redblue_3.jpg" 0 "left" 0.880224 1 0 0 544
1 568 5 56 1 1 2 "blueblue_3.jpg" 0 "left" 0.531318 1 0 0 545
1 569 5 57 2 2 2 "bluered_3.jpg" 1 "right" 0.409092 1 0 0 546
1 570 5 58 2 1 1 "redblue_4.jpg" 0 "left" 0.481097 1 0 0 547
1 571 5 59 2 1 4 "redblue_1.jpg" 0 "left" 0.437551 1 0 0 548
1 572 5 60 2 2 3 "bluered_2.jpg" 1 "right" 0.431996 1 0 0 549
1 573 5 61 1 1 3 "blueblue_2.jpg" 0 "left" 0.415209 1 0 0 550
1 574 5 62 2 2 3 "bluered_2.jpg" 1 "right" 0.619005 1 0 0 551
1 575 5 63 2 1 4 "redblue_1.jpg" 0 "left" 0.387495 1 0 0 552
1 576 5 64 2 1 1 "redblue_4.jpg" 0 "left" 0.387516 1 0 0 553
1 577 5 65 2 1 4 "redblue_1.jpg" 0 "left" 0.293608 1 0 0 554
1 578 5 66 2 1 3 "redblue_2.jpg" 0 "left" 0.376039 1 0 0 555
1 579 5 67 2 2 2 "bluered_3.jpg" 1 "right" 0.431072 1 0 0 556
1 580 5 68 2 1 1 "redblue_4.jpg" 0 "left" 0.465084 1 0 0 557
1 581 5 69 1 2 1 "redred_4.jpg" 1 "right" 0.729957 1 0 0 558
1 582 5 70 2 1 4 "redblue_1.jpg" 0 "left" 0.520373 1 0 0 559
1 583 5 71 1 1 2 "blueblue_3.jpg" 0 "left" 1.062269 1 0 0 560
1 584 5 72 2 1 3 "redblue_2.jpg" 0 "left" 0.449093 1 0 0 561
1 585 5 73 2 1 2 "redblue_3.jpg" 0 "left" 0.388736 1 0 0 562
1 586 5 74 2 1 4 "redblue_1.jpg" 0 "left" 0.46501 1 0 0 563
1 587 5 75 1 2 1 "redred_4.jpg" 1 "right" 0.690578 1 0 0 564
1 588 5 76 1 1 2 "blueblue_3.jpg" 0 "left" 0.409888 1 0 0 565
1 589 5 77 2 2 2 "bluered_3.jpg" 1 "right" 0.442698 1 0 0 566
1 590 5 78 2 2 2 "bluered_3.jpg" 1 "right" 0.476422 1 0 0 567
1 591 5 79 1 1 3 "blueblue_2.jpg" 0 "left" 0.912118 1 0 0 568
1 592 5 80 2 1 3 "redblue_2.jpg" 0 "left" 0.420567 1 0 0 569
1 593 5 81 2 1 1 "redblue_4.jpg" 0 "left" 0.360078 1 0 0 570
1 594 5 82 2 2 1 "bluered_4.jpg" 1 "right" 0.415407 1 0 0 571
1 595 5 83 2 2 1 "bluered_4.jpg" 1 "right" 0.536552 1 0 0 572
1 596 5 84 2 2 4 "bluered_1.jpg" 1 "right" 0.481386 1 0 0 573
1 597 5 85 2 2 1 "bluered_4.jpg" 1 "right" 0.354415 1 0 0 574
1 598 5 86 1 2 1 "redred_4.jpg" 1 "right" 0.376533 1 0 0 575
1 599 5 87 1 2 1 "redred_4.jpg" 0 "left" 0.376103 0 0 0 575
1 600 5 88 1 2 3 "redred_2.jpg" 1 "right" 0.652643 1 0 0 576
1 601 5 89 1 2 3 "redred_2.jpg" 1 "right" 0.387757 1 0 0 577
1 602 5 90 1 1 2 "blueblue_3.jpg" 0 "left" 0.40393 1 0 0 578
1 603 5 91 2 2 1 "bluered_4.jpg" 1 "right" 0.348748 1 0 0 579
1 604 5 92 2 2 2 "bluered_3.jpg" 1 "right" 0.409899 1 0 0 580
1 605 5 93 2 1 3 "redblue_2.jpg" 0 "left" 0.42602 1 0 0 581
1 606 5 94 1 2 1 "redred_4.jpg" 1 "right" 0.569661 1 0 0 582
1 607 5 95 1 1 2 "blueblue_3.jpg" 0 "left" 0.492678 1 0 0 583
1 608 5 96 2 2 3 "bluered_2.jpg" 1 "right" 0.442459 1 0 0 584
1 609 5 97 2 2 3 "bluered_2.jpg" 1 "right" 0.409874 1 0 0 585
1 610 5 98 1 1 1 "blueblue_4.jpg" 0 "left" 0.576032 1 0 0 586
1 611 5 99 2 1 1 "redblue_4.jpg" 0 "left" 0.35456 1 0 0 587
1 612 5 100 2 1 2 "redblue_3.jpg" 0 "left" 0.375814 1 0 0 588
1 613 5 101 1 2 1 "redred_4.jpg" 1 "right" 0.398476 1 0 0 589
1 614 5 102 1 1 3 "blueblue_2.jpg" 0 "left" 0.509651 1 0 0 590
1 615 5 103 1 2 3 "redred_2.jpg" 1 "right" 0.569753 1 0 0 591
1 616 5 104 1 1 3 "blueblue_2.jpg" 0 "left" 0.392336 1 0 0 592
1 617 5 105 1 1 2 "blueblue_3.jpg" 0 "left" 0.531743 1 0 0 593
1 618 5 106 2 2 3 "bluered_2.jpg" 1 "right" 0.393252 1 0 0 594
1 619 5 107 2 1 4 "redblue_1.jpg" 0 "left" 0.724778 1 0 0 595
1 620 5 108 2 2 1 "bluered_4.jpg" 1 "right" 0.558894 1 0 0 596
1 621 5 109 1 2 1 "redred_4.jpg" 1 "right" 0.360082 1 0 0 597
1 622 5 110 2 2 4 "bluered_1.jpg" 1 "right" 0.354322 1 0 0 598
1 623 5 111 1 1 2 "blueblue_3.jpg" 0 "left" 0.332401 1 0 0 599
1 624 5 112 1 1 4 "blueblue_1.jpg" 0 "left" 0.288156 1 0 0 600
1 625 5 113 1 2 3 "redred_2.jpg" 1 "right" 0.42665 1 0 0 601
1 626 5 114 1 1 3 "blueblue_2.jpg" 0 "left" 0.348843 1 0 0 602
1 627 5 115 1 1 4 "blueblue_1.jpg" 0 "left" 0.337711 1 0 0 603
1 628 5 116 2 2 1 "bluered_4.jpg" 1 "right" 0.392664 1 0 0 604
1 629 5 117 2 2 3 "bluered_2.jpg" 1 "right" 0.365424 1 0 0 605
1 630 5 118 1 1 4 "blueblue_1.jpg" 0 "left" 0.359774 1 0 0 606
1 631 5 119 2 1 3 "redblue_2.jpg" 0 "left" 0.282061 1 0 0 607
1 632 5 120 1 1 4 "blueblue_1.jpg" 0 "left" 0.381942 1 0 0 608
1 633 5 121 2 1 2 "redblue_3.jpg" 0 "left" 0.420568 1 0 0 609
1 634 5 122 2 1 4 "redblue_1.jpg" 0 "left" 0.525825 1 0 0 610
1 635 5 123 2 1 1 "redblue_4.jpg" 0 "left" 0.492462 1 0 0 611
1 636 5 124 2 2 4 "bluered_1.jpg" 1 "right" 0.382181 1 0 0 612
1 637 5 125 2 2 3 "bluered_2.jpg" 1 "right" 0.359802 1 0 0 613
1 638 5 126 1 2 4 "redred_1.jpg" 1 "right" 0.35994 1 0 0 614
1 639 5 127 2 2 1 "bluered_4.jpg" 1 "right" 0.370792 1 0 0 615
1 640 5 128 1 1 2 "blueblue_3.jpg" 0 "left" 0.53155 1 0 0 616
2 1 1 1 2 2 2 "bluered_3.jpg" 0 "left" 7.818229 0 0 0 0
2 2 1 2 2 2 1 "bluered_4.jpg" 0 "left" 2.633863 0 0 0 0
2 3 1 3 2 1 4 "redblue_1.jpg" 0 "left" 7.867719 1 0 0 1
2 4 1 4 1 2 3 "redred_2.jpg" 0 "left" 3.30415 0 0 0 1
2 5 1 5 2 1 1 "redblue_4.jpg" 0 "left" 5.549452 1 0 0 2
2 6 1 6 1 1 3 "blueblue_2.jpg" 0 "left" 6.712748 1 0 0 3
2 7 1 7 1 2 4 "redred_1.jpg" 1 "right" 32.396307 1 0 0 4
2 8 1 8 1 2 4 "redred_1.jpg" 1 "right" 3.066488 1 0 0 5
2 9 1 9 2 1 1 "redblue_4.jpg" 0 "left" 1.008094 1 0 0 6
2 10 1 10 1 1 4 "blueblue_1.jpg" 0 "left" 0.737123 1 0 0 7
2 11 1 11 1 1 4 "blueblue_1.jpg" 0 "left" 0.415813 1 0 0 8
2 12 1 12 2 1 2 "redblue_3.jpg" 0 "left" 0.293787 1 0 0 9
2 13 1 13 1 1 4 "blueblue_1.jpg" 0 "left" 0.338193 1 0 0 10
2 14 1 14 1 1 1 "blueblue_4.jpg" 0 "left" 0.427455 1 0 0 11
2 15 1 15 2 2 3 "bluered_2.jpg" 1 "right" 0.460384 1 0 0 12
2 16 1 16 1 1 4 "blueblue_1.jpg" 0 "left" 0.404507 1 0 0 13
2 17 1 17 1 1 1 "blueblue_4.jpg" 0 "left" 0.349945 1 0 0 14
2 18 1 18 2 1 4 "redblue_1.jpg" 0 "left" 0.366002 1 0 0 15
2 19 1 19 1 2 2 "redred_3.jpg" 1 "right" 0.377164 1 0 0 16
2 20 1 20 1 2 3 "redred_2.jpg" 1 "right" 0.277682 1 0 0 17
2 21 1 21 1 1 2 "blueblue_3.jpg" 0 "left" 0.316543 1 0 0 18
2 22 1 22 2 2 4 "bluered_1.jpg" 1 "right" 0.549202 1 0 0 19
2 23 1 23 2 1 1 "redblue_4.jpg" 0 "left" 0.349544 1 0 0 20
2 24 1 24 1 2 2 "redred_3.jpg" 1 "right" 0.338719 1 0 0 21
2 25 1 25 2 2 4 "bluered_1.jpg" 0 "left" 0.24996 0 0 0 21
2 26 1 26 1 2 1 "redred_4.jpg" 1 "right" 0.482044 1 0 0 22
2 27 1 27 2 1 4 "redblue_1.jpg" 0 "left" 0.43245 1 0 0 23
2 28 1 28 2 2 3 "bluered_2.jpg" 1 "right" 0.394231 1 0 0 24
2 29 1 29 2 2 1 "bluered_4.jpg" 1 "right" 0.349839 1 0 0 25
2 30 1 30 2 2 2 "bluered_3.jpg" 1 "right" 0.300235 1 0 0 26
2 31 1 31 1 1 3 "blueblue_2.jpg" 0 "left" 0.404517 1 0 0 27
2 32 1 32 1 2 4 "redred_1.jpg" 1 "right" 0.365861 1 0 0 28
2 33 1 33 1 2 1 "redred_4.jpg" 1 "right" 0.472176 1 0 0 29
2 34 1 34 1 2 3 "redred_2.jpg" 1 "right" 0.537267 1 0 0 30
2 35 1 35 1 1 2 "blueblue_3.jpg" 0 "left" 0.444358 1 0 0 31
2 36 1 36 1 1 4 "blueblue_1.jpg" 0 "left" 0.498829 1 0 0 32
2 37 1 37 1 1 3 "blueblue_2.jpg" 0 "left" 0.316661 1 0 0 33
2 38 1 38 2 2 2 "bluered_3.jpg" 1 "right" 0.576181 1 0 0 34
2 39 1 39 2 2 4 "bluered_1.jpg" 1 "right" 0.471042 1 0 0 35
2 40 1 40 1 1 3 "blueblue_2.jpg" 0 "left" 0.322204 1 0 0 36
2 41 1 41 2 1 2 "redblue_3.jpg" 0 "left" 0.288516 1 0 0 37
2 42 1 42 1 1 2 "blueblue_3.jpg" 0 "left" 0.383186 1 0 0 38
2 43 1 43 1 1 3 "blueblue_2.jpg" 0 "left" 0.349947 1 0 0 39
2 44 1 44 2 2 1 "bluered_4.jpg" 1 "right" 1.340069 1 0 0 40
2 45 1 45 2 2 4 "bluered_1.jpg" 0 "left" 0.720739 0 0 0 40
2 46 1 46 2 1 1 "redblue_4.jpg" 0 "left" 2.309315 1 0 0 41
2 47 1 47 2 2 2 "bluered_3.jpg" 1 "right" 0.808772 1 0 0 42
2 48 1 48 1 1 4 "blueblue_1.jpg" 0 "left" 0.610111 1 0 0 43
2 49 1 49 2 2 2 "bluered_3.jpg" 1 "right" 0.538166 1 0 0 44
2 50 1 50 1 2 1 "redred_4.jpg" 1 "right" 0.482649 1 0 0 45
2 51 1 51 2 1 1 "redblue_4.jpg" 0 "left" 0.930328 1 0 0 46
2 52 1 52 2 1 4 "redblue_1.jpg" 0 "left" 0.773063 1 0 0 47
2 53 1 53 1 1 3 "blueblue_2.jpg" 0 "left" 0.444238 1 0 0 48
2 54 1 54 2 2 3 "bluered_2.jpg" 1 "right" 0.598762 1 0 0 49
2 55 1 55 1 2 4 "redred_1.jpg" 1 "right" 0.61019 1 0 0 50
2 56 1 56 1 2 2 "redred_3.jpg" 1 "right" 0.433057 1 0 0 51
2 57 1 57 2 2 4 "bluered_1.jpg" 1 "right" 0.349783 1 0 0 52
2 58 1 58 1 1 4 "blueblue_1.jpg" 0 "left" 0.349717 1 0 0 53
2 59 1 59 1 1 1 "blueblue_4.jpg" 0 "left" 0.360605 1 0 0 54
2 60 1 60 1 2 2 "redred_3.jpg" 1 "right" 0.515119 1 0 0 55
2 61 1 61 1 1 4 "blueblue_1.jpg" 0 "left" 0.410391 1 0 0 56
2 62 1 62 2 2 4 "bluered_1.jpg" 1 "right" 0.571131 1 0 0 57
2 63 1 63 1 1 2 "blueblue_3.jpg" 0 "left" 0.466395 1 0 0 58
2 64 1 64 2 1 1 "redblue_4.jpg" 0 "left" 0.44929 1 0 0 59
2 65 1 65 1 1 4 "blueblue_1.jpg" 0 "left" 0.449061 1 0 0 60
2 66 1 66 1 2 4 "redred_1.jpg" 1 "right" 0.388669 1 0 0 61
2 67 1 67 1 2 1 "redred_4.jpg" 1 "right" 0.460187 1 0 0 62
2 68 1 68 2 2 4 "bluered_1.jpg" 1 "right" 0.338701 1 0 0 63
2 69 1 69 2 1 4 "redblue_1.jpg" 0 "left" 0.321442 1 0 0 64
2 70 1 70 1 2 2 "redred_3.jpg" 1 "right" 0.459772 1 0 0 65
2 71 1 71 1 2 4 "redred_1.jpg" 1 "right" 0.526467 1 0 0 66
2 72 1 72 1 1 4 "blueblue_1.jpg" 0 "left" 0.442861 1 0 0 67
2 73 1 73 1 2 1 "redred_4.jpg" 1 "right" 0.377594 1 0 0 68
2 74 1 74 1 1 4 "blueblue_1.jpg" 0 "left" 0.51592 1 0 0 69
2 75 1 75 1 1 3 "blueblue_2.jpg" 0 "left" 0.383211 1 0 0 70
2 76 1 76 2 1 4 "redblue_1.jpg" 0 "left" 0.35016 1 0 0 71
2 77 1 77 1 1 3 "blueblue_2.jpg" 0 "left" 0.34878 1 0 0 72
2 78 1 78 1 2 3 "redred_2.jpg" 1 "right" 0.338858 1 0 0 73
2 79 1 79 1 2 2 "redred_3.jpg" 1 "right" 0.393283 1 0 0 74
2 80 1 80 1 2 3 "redred_2.jpg" 1 "right" 0.371381 1 0 0 75
2 81 1 81 1 2 2 "redred_3.jpg" 1 "right" 1.047144 1 0 0 76
2 82 1 82 2 1 1 "redblue_4.jpg" 0 "left" 0.410659 1 0 0 77
2 83 1 83 2 2 3 "bluered_2.jpg" 1 "right" 0.649058 1 0 0 78
2 84 1 84 1 1 4 "blueblue_1.jpg" 0 "left" 0.604275 1 0 0 79
2 85 1 85 2 2 2 "bluered_3.jpg" 1 "right" 0.349535 1 0 0 80
2 86 1 86 1 1 2 "blueblue_3.jpg" 0 "left" 0.377493 1 0 0 81
2 87 1 87 2 2 4 "bluered_1.jpg" 1 "right" 0.554476 1 0 0 82
2 88 1 88 2 2 3 "bluered_2.jpg" 1 "right" 0.471448 1 0 0 83
2 89 1 89 1 1 4 "blueblue_1.jpg" 0 "left" 0.371616 1 0 0 84
2 90 1 90 1 2 1 "redred_4.jpg" 1 "right" 0.449636 1 0 0 85
2 91 1 91 1 1 3 "blueblue_2.jpg" 0 "left" 0.443348 1 0 0 86
2 92 1 92 2 1 4 "redblue_1.jpg" 0 "left" 0.460821 1 0 0 87
2 93 1 93 1 2 2 "redred_3.jpg" 1 "right" 0.327738 1 0 0 88
2 94 1 94 1 1 3 "blueblue_2.jpg" 0 "left" 0.410272 1 0 0 89
2 95 1 95 1 1 1 "blueblue_4.jpg" 0 "left" 0.918983 1 0 0 90
2 96 1 96 1 2 3 "redred_2.jpg" 1 "right" 0.4602 1 0 0 91
2 97 1 97 1 2 1 "redred_4.jpg" 1 "right" 0.426865 1 0 0 92
2 98 1 98 2 2 4 "bluered_1.jpg" 1 "right" 0.416857 1 0 0 93
2 99 1 99 2 1 3 "redblue_2.jpg" 0 "left" 0.448867 1 0 0 94
2 100 1 100 2 2 1 "bluered_4.jpg" 1 "right" 0.4278 1 0 0 95
2 101 1 101 2 1 1 "redblue_4.jpg" 0 "left" 0.753717 1 0 0 96
2 102 1 102 2 1 3 "redblue_2.jpg" 0 "left" 0.514822 1 0 0 97
2 103 1 103 2 2 2 "bluered_3.jpg" 1 "right" 0.421239 1 0 0 98
2 104 1 104 2 1 3 "redblue_2.jpg" 0 "left" 0.614946 1 0 0 99
2 105 1 105 1 1 2 "blueblue_3.jpg" 0 "left" 0.477135 1 0 0 100
2 106 1 106 2 1 3 "redblue_2.jpg" 0 "left" 0.460302 1 0 0 101
2 107 1 107 2 1 1 "redblue_4.jpg" 0 "left" 0.471476 1 0 0 102
2 108 1 108 2 1 3 "redblue_2.jpg" 0 "left" 0.393679 1 0 0 103
2 109 1 109 2 1 3 "redblue_2.jpg" 0 "left" 0.34411 1 0 0 104
2 110 1 110 1 1 3 "blueblue_2.jpg" 0 "left" 0.333434 1 0 0 105
2 111 1 111 2 1 3 "redblue_2.jpg" 0 "left" 0.438138 1 0 0 106
2 112 1 112 1 1 2 "blueblue_3.jpg" 0 "left" 0.316695 1 0 0 107
2 113 1 113 1 2 1 "redred_4.jpg" 1 "right" 0.376997 1 0 0 108
2 114 1 114 2 2 3 "bluered_2.jpg" 1 "right" 0.637067 1 0 0 109
2 115 1 115 1 2 3 "redred_2.jpg" 1 "right" 0.337736 1 0 0 110
2 116 1 116 1 1 2 "blueblue_3.jpg" 0 "left" 0.510299 1 0 0 111
2 117 1 117 2 2 4 "bluered_1.jpg" 1 "right" 0.9915 1 0 0 112
2 118 1 118 2 2 1 "bluered_4.jpg" 1 "right" 0.492741 1 0 0 113
2 119 1 119 2 2 1 "bluered_4.jpg" 1 "right" 0.339311 1 0 0 114
2 120 1 120 2 1 2 "redblue_3.jpg" 0 "left" 0.388711 1 0 0 115
2 121 1 121 2 1 1 "redblue_4.jpg" 0 "left" 0.41025 1 0 0 116
2 122 1 122 1 2 1 "redred_4.jpg" 1 "right" 0.344053 1 0 0 117
2 123 1 123 1 2 1 "redred_4.jpg" 1 "right" 0.537239 1 0 0 118
2 124 1 124 2 1 4 "redblue_1.jpg" 0 "left" 0.433296 1 0 0 119
2 125 1 125 2 2 1 "bluered_4.jpg" 1 "right" 0.388053 1 0 0 120
2 126 1 126 1 2 2 "redred_3.jpg" 0 "left" 0.471293 0 0 0 120
2 127 1 127 1 1 3 "blueblue_2.jpg" 0 "left" 0.964347 1 0 0 121
2 128 1 128 1 1 2 "blueblue_3.jpg" 0 "left" 0.405134 1 0 0 122
2 129 2 1 1 1 1 "blueblue_4.jpg" 0 "left" 1.761236 1 0 0 123
2 130 2 2 2 1 1 "redblue_4.jpg" 0 "left" 0.42712 1 0 0 124
2 131 2 3 2 1 2 "redblue_3.jpg" 0 "left" 0.35487 1 0 0 125
2 132 2 4 1 2 3 "redred_2.jpg" 1 "right" 0.277699 1 0 0 126
2 133 2 5 1 2 3 "redred_2.jpg" 1 "right" 0.288723 1 0 0 127
2 134 2 6 2 2 4 "bluered_1.jpg" 1 "right" 0.392995 1 0 0 128
2 135 2 7 2 2 4 "bluered_1.jpg" 1 "right" 0.326365 1 0 0 129
2 136 2 8 2 1 2 "redblue_3.jpg" 0 "left" 0.416091 1 0 0 130
2 137 2 9 2 1 1 "redblue_4.jpg" 0 "left" 0.383164 1 0 0 131
2 138 2 10 2 1 3 "redblue_2.jpg" 0 "left" 0.514502 1 0 0 132
2 139 2 11 2 2 2 "bluered_3.jpg" 1 "right" 0.520936 1 0 0 133
2 140 2 12 2 1 4 "redblue_1.jpg" 0 "left" 0.521693 1 0 0 134
2 141 2 13 1 1 1 "blueblue_4.jpg" 0 "left" 0.521177 1 0 0 135
2 142 2 14 1 2 3 "redred_2.jpg" 1 "right" 0.288792 1 0 0 136
2 143 2 15 1 1 1 "blueblue_4.jpg" 0 "left" 0.34992 1 0 0 137
2 144 2 16 2 2 2 "bluered_3.jpg" 1 "right" 0.520186 1 0 0 138
2 145 2 17 1 2 4 "redred_1.jpg" 0 "left" 0.654695 0 0 0 138
2 146 2 18 1 2 4 "redred_1.jpg" 1 "right" 0.89217 1 0 0 139
2 147 2 19 2 2 1 "bluered_4.jpg" 1 "right" 0.387909 1 0 0 140
2 148 2 20 1 1 2 "blueblue_3.jpg" 0 "left" 0.487805 1 0 0 141
2 149 2 21 2 2 3 "bluered_2.jpg" 1 "right" 0.63208 1 0 0 142
2 150 2 22 2 1 1 "redblue_4.jpg" 0 "left" 0.69184 1 0 0 143
2 151 2 23 2 1 3 "redblue_2.jpg" 0 "left" 0.636887 1 0 0 144
2 152 2 24 2 1 1 "redblue_4.jpg" 0 "left" 0.488223 1 0 0 145
2 153 2 25 1 2 4 "redred_1.jpg" 1 "right" 0.410277 1 0 0 146
2 154 2 26 1 1 3 "blueblue_2.jpg" 0 "left" 0.521692 1 0 0 147
2 155 2 27 2 2 2 "bluered_3.jpg" 1 "right" 0.459866 1 0 0 148
2 156 2 28 2 2 4 "bluered_1.jpg" 1 "right" 0.781835 1 0 0 149
2 157 2 29 2 1 2 "redblue_3.jpg" 0 "left" 0.410605 1 0 0 150
2 158 2 30 1 2 4 "redred_1.jpg" 1 "right" 0.443501 1 0 0 151
2 159 2 31 2 2 3 "bluered_2.jpg" 1 "right" 1.406932 1 0 0 152
2 160 2 32 2 2 3 "bluered_2.jpg" 1 "right" 1.445597 1 0 0 153
2 161 2 33 1 1 2 "blueblue_3.jpg" 0 "left" 0.471539 1 0 0 154
2 162 2 34 2 2 2 "bluered_3.jpg" 1 "right" 0.421437 1 0 0 155
2 163 2 35 2 2 2 "bluered_3.jpg" 1 "right" 0.621622 1 0 0 156
2 164 2 36 2 1 2 "redblue_3.jpg" 0 "left" 0.438913 1 0 0 157
2 165 2 37 2 2 1 "bluered_4.jpg" 1 "right" 0.565571 1 0 0 158
2 166 2 38 2 1 3 "redblue_2.jpg" 0 "left" 0.427584 1 0 0 159
2 167 2 39 1 2 3 "redred_2.jpg" 1 "right" 0.349324 1 0 0 160
2 168 2 40 1 1 3 "blueblue_2.jpg" 0 "left" 0.598751 1 0 0 161
2 169 2 41 2 1 1 "redblue_4.jpg" 0 "left" 0.409884 1 0 0 162
2 170 2 42 1 2 2 "redred_3.jpg" 1 "right" 0.431947 1 0 0 163
2 171 2 43 2 2 3 "bluered_2.jpg" 1 "right" 0.360759 1 0 0 164
2 172 2 44 1 2 2 "redred_3.jpg" 1 "right" 0.338811 1 0 0 165
2 173 2 45 1 2 4 "redred_1.jpg" 1 "right" 0.465419 1 0 0 166
2 174 2 46 1 2 1 "redred_4.jpg" 1 "right" 0.449651 1 0 0 167
2 175 2 47 2 2 1 "bluered_4.jpg" 1 "right" 0.29443 1 0 0 168
2 176 2 48 1 2 1 "redred_4.jpg" 1 "right" 0.382661 1 0 0 169
2 177 2 49 2 2 2 "bluered_3.jpg" 1 "right" 0.315494 1 0 0 170
2 178 2 50 1 2 3 "redred_2.jpg" 1 "right" 0.305141 1 0 0 171
2 179 2 51 1 1 3 "blueblue_2.jpg" 0 "left" 0.344039 1 0 0 172
2 180 2 52 1 2 1 "redred_4.jpg" 1 "right" 0.354735 1 0 0 173
2 181 2 53 2 1 2 "redblue_3.jpg" 0 "left" 0.344179 1 0 0 174
2 182 2 54 2 1 1 "redblue_4.jpg" 0 "left" 0.415882 1 0 0 175
2 183 2 55 1 2 2 "redred_3.jpg" 1 "right" 0.493783 1 0 0 176
2 184 2 56 2 1 4 "redblue_1.jpg" 0 "left" 0.278089 1 0 0 177
2 185 2 57 2 1 2 "redblue_3.jpg" 0 "left" 0.437939 1 0 0 178
2 186 2 58 1 2 3 "redred_2.jpg" 1 "right" 0.316555 1 0 0 179
2 187 2 59 2 2 4 "bluered_1.jpg" 1 "right" 0.404923 1 0 0 180
2 188 2 60 2 2 3 "bluered_2.jpg" 1 "right" 0.376962 1 0 0 181
2 189 2 61 1 1 2 "blueblue_3.jpg" 0 "left" 0.311155 1 0 0 182
2 190 2 62 1 2 1 "redred_4.jpg" 1 "right" 0.459988 1 0 0 183
2 191 2 63 1 1 1 "blueblue_4.jpg" 0 "left" 0.409988 1 0 0 184
2 192 2 64 2 1 3 "redblue_2.jpg" 0 "left" 0.636536 1 0 0 185
2 193 2 65 1 2 2 "redred_3.jpg" 1 "right" 0.449706 1 0 0 186
2 194 2 66 1 1 4 "blueblue_1.jpg" 1 "right" 0.515472 0 0 0 186
2 195 2 67 2 2 2 "bluered_3.jpg" 1 "right" 0.576408 1 0 0 187
2 196 2 68 1 2 4 "redred_1.jpg" 1 "right" 0.443709 1 0 0 188
2 197 2 69 1 1 4 "blueblue_1.jpg" 0 "left" 0.421497 1 0 0 189
2 198 2 70 2 1 1 "redblue_4.jpg" 0 "left" 0.421309 1 0 0 190
2 199 2 71 2 1 2 "redblue_3.jpg" 0 "left" 0.476739 1 0 0 191
2 200 2 72 2 2 3 "bluered_2.jpg" 1 "right" 0.881516 1 0 0 192
2 201 2 73 2 2 3 "bluered_2.jpg" 1 "right" 0.5155 1 0 0 193
2 202 2 74 2 1 3 "redblue_2.jpg" 0 "left" 0.626943 1 0 0 194
2 203 2 75 1 2 3 "redred_2.jpg" 1 "right" 1.052135 1 0 0 195
2 204 2 76 2 2 2 "bluered_3.jpg" 1 "right" 0.416054 1 0 0 196
2 205 2 77 1 2 1 "redred_4.jpg" 1 "right" 1.622385 1 0 0 197
2 206 2 78 2 1 1 "redblue_4.jpg" 0 "left" 0.925343 1 0 0 198
2 207 2 79 1 2 2 "redred_3.jpg" 1 "right" 0.488167 1 0 0 199
2 208 2 80 1 1 3 "blueblue_2.jpg" 0 "left" 1.366037 1 0 0 200
2 209 2 81 2 2 1 "bluered_4.jpg" 1 "right" 0.554275 1 0 0 201
2 210 2 82 2 1 4 "redblue_1.jpg" 0 "left" 0.498866 1 0 0 202
2 211 2 83 2 1 1 "redblue_4.jpg" 0 "left" 0.377217 1 0 0 203
2 212 2 84 2 1 1 "redblue_4.jpg" 0 "left" 0.410385 1 0 0 204
2 213 2 85 2 2 2 "bluered_3.jpg" 1 "right" 0.349861 1 0 0 205
2 214 2 86 2 1 1 "redblue_4.jpg" 0 "left" 0.360284 1 0 0 206
2 215 2 87 2 2 2 "bluered_3.jpg" 1 "right" 0.365915 1 0 0 207
2 216 2 88 1 1 1 "blueblue_4.jpg" 0 "left" 0.421123 1 0 0 208
2 217 2 89 2 1 2 "redblue_3.jpg" 0 "left" 0.421367 1 0 0 209
2 218 2 90 2 2 3 "bluered_2.jpg" 1 "right" 0.516617 1 0 0 210
2 219 2 91 1 1 1 "blueblue_4.jpg" 0 "left" 0.681529 1 0 0 211
2 220 2 92 1 1 1 "blueblue_4.jpg" 0 "left" 0.355311 1 0 0 212
2 221 2 93 1 2 2 "redred_3.jpg" 1 "right" 0.471237 1 0 0 213
2 222 2 94 1 1 2 "blueblue_3.jpg" 0 "left" 0.552774 1 0 0 214
2 223 2 95 1 1 1 "blueblue_4.jpg" 0 "left" 0.377436 1 0 0 215
2 224 2 96 2 1 3 "redblue_2.jpg" 0 "left" 0.338336 1 0 0 216
2 225 2 97 1 1 1 "blueblue_4.jpg" 0 "left" 0.288518 1 0 0 217
2 226 2 98 2 2 4 "bluered_1.jpg" 0 "left" 0.256163 0 0 0 217
2 227 2 99 2 1 4 "redblue_1.jpg" 0 "left" 0.394137 1 0 0 218
2 228 2 100 2 2 3 "bluered_2.jpg" 1 "right" 0.365956 1 0 0 219
2 229 2 101 2 1 1 "redblue_4.jpg" 0 "left" 0.344354 1 0 0 220
2 230 2 102 1 2 3 "redred_2.jpg" 1 "right" 0.278011 1 0 0 221
2 231 2 103 2 2 1 "bluered_4.jpg" 1 "right" 0.725779 1 0 0 222
2 232 2 104 1 2 2 "redred_3.jpg" 1 "right" 0.394073 1 0 0 223
2 233 2 105 2 2 3 "bluered_2.jpg" 1 "right" 0.277981 1 0 0 224
2 234 2 106 1 1 4 "blueblue_1.jpg" 0 "left" 0.360882 1 0 0 225
2 235 2 107 1 1 3 "blueblue_2.jpg" 0 "left" 0.30517 1 0 0 226
2 236 2 108 1 2 4 "redred_1.jpg" 1 "right" 0.310699 1 0 0 227
2 237 2 109 1 2 2 "redred_3.jpg" 1 "right" 0.349048 1 0 0 228
2 238 2 110 1 1 1 "blueblue_4.jpg" 0 "left" 0.41059 1 0 0 229
2 239 2 111 1 2 3 "redred_2.jpg" 1 "right" 0.671114 1 0 0 230
2 240 2 112 2 1 4 "redblue_1.jpg" 0 "left" 0.693206 1 0 0 231
2 241 2 113 2 1 4 "redblue_1.jpg" 0 "left" 0.432988 1 0 0 232
2 242 2 114 2 2 1 "bluered_4.jpg" 1 "right" 0.725077 1 0 0 233
2 243 2 115 1 1 1 "blueblue_4.jpg" 0 "left" 0.294072 1 0 0 234
2 244 2 116 1 1 2 "blueblue_3.jpg" 0 "left" 0.471214 1 0 0 235
2 245 2 117 1 2 3 "redred_2.jpg" 1 "right" 0.426783 1 0 0 236
2 246 2 118 2 2 3 "bluered_2.jpg" 1 "right" 0.4437 1 0 0 237
2 247 2 119 2 1 4 "redblue_1.jpg" 0 "left" 0.332737 1 0 0 238
2 248 2 120 2 1 4 "redblue_1.jpg" 0 "left" 0.394064 1 0 0 239
2 249 2 121 2 2 2 "bluered_3.jpg" 1 "right" 0.294305 1 0 0 240
2 250 2 122 1 1 2 "blueblue_3.jpg" 0 "left" 0.510299 1 0 0 241
2 251 2 123 2 2 2 "bluered_3.jpg" 1 "right" 0.316427 1 0 0 242
2 252 2 124 2 2 1 "bluered_4.jpg" 1 "right" 0.393235 1 0 0 243
2 253 2 125 2 2 1 "bluered_4.jpg" 1 "right" 0.305212 1 0 0 244
2 254 2 126 2 2 1 "bluered_4.jpg" 1 "right" 0.344123 1 0 0 245
2 255 2 127 2 2 2 "bluered_3.jpg" 1 "right" 0.371921 1 0 0 246
2 256 2 128 1 1 3 "blueblue_2.jpg" 0 "left" 0.359839 1 0 0 247
2 257 3 1 1 1 2 "blueblue_3.jpg" 0 "left" 1.075367 1 0 0 248
2 258 3 2 1 1 1 "blueblue_4.jpg" 0 "left" 0.476464 1 0 0 249
2 259 3 3 1 2 3 "redred_2.jpg" 0 "left" 0.326776 0 0 0 249
2 260 3 4 1 1 4 "blueblue_1.jpg" 0 "left" 0.460199 1 0 0 250
2 261 3 5 2 2 3 "bluered_2.jpg" 1 "right" 0.256003 1 0 0 251
2 262 3 6 2 2 1 "bluered_4.jpg" 1 "right" 0.283411 1 0 0 252
2 263 3 7 1 1 2 "blueblue_3.jpg" 0 "left" 0.250112 1 0 0 253
2 264 3 8 1 1 4 "blueblue_1.jpg" 0 "left" 0.437504 1 0 0 254
2 265 3 9 2 1 2 "redblue_3.jpg" 0 "left" 0.294287 1 0 0 255
2 266 3 10 2 1 4 "redblue_1.jpg" 0 "left" 0.344589 1 0 0 256
2 267 3 11 1 2 3 "redred_2.jpg" 1 "right" 0.914436 1 0 0 257
2 268 3 12 2 1 1 "redblue_4.jpg" 0 "left" 0.46538 1 0 0 258
2 269 3 13 1 2 1 "redred_4.jpg" 1 "right" 0.37132 1 0 0 259
2 270 3 14 1 2 1 "redred_4.jpg" 1 "right" 0.366094 1 0 0 260
2 271 3 15 2 1 2 "redblue_3.jpg" 0 "left" 0.443291 1 0 0 261
2 272 3 16 2 1 2 "redblue_3.jpg" 0 "left" 0.387548 1 0 0 262
2 273 3 17 2 2 3 "bluered_2.jpg" 1 "right" 0.327589 1 0 0 263
2 274 3 18 1 2 2 "redred_3.jpg" 1 "right" 1.91412 1 0 0 264
2 275 3 19 1 1 1 "blueblue_4.jpg" 0 "left" 0.404403 1 0 0 265
2 276 3 20 1 2 1 "redred_4.jpg" 1 "right" 0.576229 1 0 0 266
2 277 3 21 1 1 1 "blueblue_4.jpg" 0 "left" 0.471116 1 0 0 267
2 278 3 22 1 1 1 "blueblue_4.jpg" 0 "left" 0.411036 1 0 0 268
2 279 3 23 1 1 2 "blueblue_3.jpg" 0 "left" 0.586942 1 0 0 269
2 280 3 24 2 1 2 "redblue_3.jpg" 0 "left" 0.426856 1 0 0 270
2 281 3 25 2 1 3 "redblue_2.jpg" 0 "left" 0.293914 1 0 0 271
2 282 3 26 1 2 3 "redred_2.jpg" 1 "right" 0.398957 1 0 0 272
2 283 3 27 2 1 4 "redblue_1.jpg" 0 "left" 0.560027 1 0 0 273
2 284 3 28 2 2 3 "bluered_2.jpg" 1 "right" 0.582133 1 0 0 274
2 285 3 29 1 1 3 "blueblue_2.jpg" 0 "left" 0.443172 1 0 0 275
2 286 3 30 2 1 2 "redblue_3.jpg" 0 "left" 0.42069 1 0 0 276
2 287 3 31 1 2 2 "redred_3.jpg" 1 "right" 0.410322 1 0 0 277
2 288 3 32 2 2 2 "bluered_3.jpg" 1 "right" 0.416123 1 0 0 278
2 289 3 33 1 1 1 "blueblue_4.jpg" 0 "left" 0.349348 1 0 0 279
2 290 3 34 2 1 3 "redblue_2.jpg" 0 "left" 0.316476 1 0 0 280
2 291 3 35 2 2 1 "bluered_4.jpg" 1 "right" 0.310139 1 0 0 281
2 292 3 36 1 1 1 "blueblue_4.jpg" 0 "left" 0.372076 1 0 0 282
2 293 3 37 1 2 3 "redred_2.jpg" 1 "right" 0.315872 1 0 0 283
2 294 3 38 1 1 3 "blueblue_2.jpg" 0 "left" 0.272125 1 0 0 284
2 295 3 39 2 2 1 "bluered_4.jpg" 1 "right" 0.244165 1 0 0 285
2 296 3 40 1 1 4 "blueblue_1.jpg" 0 "left" 0.31661 1 0 0 286
2 297 3 41 1 1 2 "blueblue_3.jpg" 0 "left" 0.27195 1 0 0 287
2 298 3 42 2 1 2 "redblue_3.jpg" 0 "left" 0.283078 1 0 0 288
2 299 3 43 1 2 4 "redred_1.jpg" 1 "right" 0.26102 1 0 0 289
2 300 3 44 1 2 3 "redred_2.jpg" 1 "right" 0.261035 1 0 0 290
2 301 3 45 1 1 3 "blueblue_2.jpg" 0 "left" 0.409992 1 0 0 291
2 302 3 46 1 2 2 "redred_3.jpg" 1 "right" 0.426669 1 0 0 292
2 303 3 47 2 1 3 "redblue_2.jpg" 0 "left" 0.371937 1 0 0 293
2 304 3 48 1 2 4 "redred_1.jpg" 1 "right" 0.38813 1 0 0 294
2 305 3 49 2 2 3 "bluered_2.jpg" 1 "right" 0.49421 1 0 0 295
2 306 3 50 1 1 2 "blueblue_3.jpg" 0 "left" 0.488307 1 0 0 296
2 307 3 51 1 1 3 "blueblue_2.jpg" 0 "left" 0.344155 1 0 0 297
2 308 3 52 1 1 3 "blueblue_2.jpg" 0 "left" 0.34927 1 0 0 298
2 309 3 53 1 1 1 "blueblue_4.jpg" 0 "left" 0.311249 1 0 0 299
2 310 3 54 1 1 4 "blueblue_1.jpg" 0 "left" 0.587197 1 0 0 300
2 311 3 55 1 1 2 "blueblue_3.jpg" 0 "left" 0.354802 1 0 0 301
2 312 3 56 2 1 1 "redblue_4.jpg" 0 "left" 0.294126 1 0 0 302
2 313 3 57 1 2 3 "redred_2.jpg" 1 "right" 0.454531 1 0 0 303
2 314 3 58 1 2 4 "redred_1.jpg" 1 "right" 0.349253 1 0 0 304
2 315 3 59 2 1 4 "redblue_1.jpg" 0 "left" 0.448982 1 0 0 305
2 316 3 60 1 2 4 "redred_1.jpg" 1 "right" 0.493161 1 0 0 306
2 317 3 61 2 2 3 "bluered_2.jpg" 0 "left" 0.30529 0 0 0 306
2 318 3 62 1 2 3 "redred_2.jpg" 1 "right" 0.897977 1 0 0 307
2 319 3 63 1 1 4 "blueblue_1.jpg" 0 "left" 0.4826 1 0 0 308
2 320 3 64 1 2 1 "redred_4.jpg" 1 "right" 0.387925 1 0 0 309
2 321 3 65 2 2 1 "bluered_4.jpg" 0 "left" 1.124874 0 0 0 309
2 322 3 66 1 1 2 "blueblue_3.jpg" 0 "left" 0.808973 1 0 0 310
2 323 3 67 1 1 4 "blueblue_1.jpg" 0 "left" 0.554396 1 0 0 311
2 324 3 68 1 2 4 "redred_1.jpg" 1 "right" 0.643308 1 0 0 312
2 325 3 69 1 2 3 "redred_2.jpg" 1 "right" 1.661208 1 0 0 313
2 326 3 70 1 2 2 "redred_3.jpg" 1 "right" 0.526064 1 0 0 314
2 327 3 71 2 2 3 "bluered_2.jpg" 1 "right" 1.128926 1 0 0 315
2 328 3 72 1 1 4 "blueblue_1.jpg" 0 "left" 0.537874 1 0 0 316
2 329 3 73 1 2 2 "redred_3.jpg" 1 "right" 0.454748 1 0 0 317
2 330 3 74 2 2 3 "bluered_2.jpg" 1 "right" 0.554799 1 0 0 318
2 331 3 75 1 2 2 "redred_3.jpg" 1 "right" 0.553277 1 0 0 319
2 332 3 76 1 1 1 "blueblue_4.jpg" 0 "left" 0.620774 1 0 0 320
2 333 3 77 2 2 4 "bluered_1.jpg" 1 "right" 0.880119 1 0 0 321
2 334 3 78 2 1 1 "redblue_4.jpg" 0 "left" 0.692711 1 0 0 322
2 335 3 79 1 2 4 "redred_1.jpg" 1 "right" 0.354882 1 0 0 323
2 336 3 80 1 2 4 "redred_1.jpg" 1 "right" 0.564638 1 0 0 324
2 337 3 81 1 2 1 "redred_4.jpg" 1 "right" 0.371526 1 0 0 325
2 338 3 82 2 2 3 "bluered_2.jpg" 1 "right" 0.360383 1 0 0 326
2 339 3 83 2 2 4 "bluered_1.jpg" 1 "right" 0.410352 1 0 0 327
2 340 3 84 2 1 4 "redblue_1.jpg" 0 "left" 0.45994 1 0 0 328
2 341 3 85 2 1 2 "redblue_3.jpg" 0 "left" 0.443606 1 0 0 329
2 342 3 86 2 2 1 "bluered_4.jpg" 1 "right" 0.631267 1 0 0 330
2 343 3 87 2 1 3 "redblue_2.jpg" 0 "left" 0.409915 1 0 0 331
2 344 3 88 1 2 3 "redred_2.jpg" 1 "right" 0.399153 1 0 0 332
2 345 3 89 1 2 4 "redred_1.jpg" 1 "right" 0.510031 1 0 0 333
2 346 3 90 2 2 1 "bluered_4.jpg" 1 "right" 0.432314 1 0 0 334
2 347 3 91 1 2 1 "redred_4.jpg" 1 "right" 0.387881 1 0 0 335
2 348 3 92 1 2 2 "redred_3.jpg" 1 "right" 0.437715 1 0 0 336
2 349 3 93 2 1 3 "redblue_2.jpg" 0 "left" 0.360383 1 0 0 337
2 350 3 94 1 2 4 "redred_1.jpg" 1 "right" 0.421658 1 0 0 338
2 351 3 95 1 2 2 "redred_3.jpg" 1 "right" 0.438138 1 0 0 339
2 352 3 96 2 1 4 "redblue_1.jpg" 0 "left" 0.554046 1 0 0 340
2 353 3 97 2 2 4 "bluered_1.jpg" 1 "right" 0.498563 1 0 0 341
2 354 3 98 1 1 2 "blueblue_3.jpg" 1 "right" 0.709898 0 0 0 341
2 355 3 99 2 1 2 "redblue_3.jpg" 0 "left" 1.584151 1 0 0 342
2 356 3 100 2 2 1 "bluered_4.jpg" 1 "right" 0.725456 1 0 0 343
2 357 3 101 2 1 4 "redblue_1.jpg" 0 "left" 0.471225 1 0 0 344
2 358 3 102 1 1 4 "blueblue_1.jpg" 0 "left" 0.421109 1 0 0 345
2 359 3 103 1 1 4 "blueblue_1.jpg" 0 "left" 0.332798 1 0 0 346
2 360 3 104 1 2 1 "redred_4.jpg" 1 "right" 0.443331 1 0 0 347
2 361 3 105 2 1 2 "redblue_3.jpg" 0 "left" 0.641711 1 0 0 348
2 362 3 106 2 1 2 "redblue_3.jpg" 0 "left" 0.4388 1 0 0 349
2 363 3 107 1 2 4 "redred_1.jpg" 1 "right" 0.586722 1 0 0 350
2 364 3 108 2 2 1 "bluered_4.jpg" 1 "right" 1.560467 1 0 0 351
2 365 3 109 1 2 1 "redred_4.jpg" 1 "right" 0.697992 1 0 0 352
2 366 3 110 2 2 4 "bluered_1.jpg" 1 "right" 0.459642 1 0 0 353
2 367 3 111 2 2 1 "bluered_4.jpg" 1 "right" 0.377591 1 0 0 354
2 368 3 112 1 1 2 "blueblue_3.jpg" 0 "left" 0.427087 1 0 0 355
2 369 3 113 1 1 3 "blueblue_2.jpg" 0 "left" 0.526507 1 0 0 356
2 370 3 114 2 2 2 "bluered_3.jpg" 1 "right" 1.278336 1 0 0 357
2 371 3 115 1 2 2 "redred_3.jpg" 1 "right" 0.621035 1 0 0 358
2 372 3 116 1 2 4 "redred_1.jpg" 1 "right" 0.516088 1 0 0 359
2 373 3 117 2 1 2 "redblue_3.jpg" 0 "left" 0.792444 1 0 0 360
2 374 3 118 1 1 2 "blueblue_3.jpg" 0 "left" 0.415903 1 0 0 361
2 375 3 119 2 1 2 "redblue_3.jpg" 0 "left" 0.537507 1 0 0 362
2 376 3 120 2 2 2 "bluered_3.jpg" 1 "right" 0.587585 1 0 0 363
2 377 3 121 1 1 4 "blueblue_1.jpg" 1 "right" 0.437661 0 0 0 363
2 378 3 122 2 2 4 "bluered_1.jpg" 1 "right" 0.333076 1 0 0 364
2 379 3 123 2 1 4 "redblue_1.jpg" 0 "left" 0.57126 1 0 0 365
2 380 3 124 2 1 4 "redblue_1.jpg" 0 "left" 0.80895 1 0 0 366
2 381 3 125 1 2 4 "redred_1.jpg" 1 "right" 0.71542 1 0 0 367
2 382 3 126 2 1 3 "redblue_2.jpg" 0 "left" 0.759448 1 0 0 368
2 383 3 127 2 1 4 "redblue_1.jpg" 0 "left" 0.681746 1 0 0 369
2 384 3 128 2 1 2 "redblue_3.jpg" 0 "left" 0.814526 1 0 0 370
2 385 4 1 1 1 2 "blueblue_3.jpg" 0 "left" 0.44873 1 0 0 371
2 386 4 2 1 1 3 "blueblue_2.jpg" 0 "left" 0.398549 1 0 0 372
2 387 4 3 1 2 4 "redred_1.jpg" 1 "right" 0.587275 1 0 0 373
2 388 4 4 1 2 1 "redred_4.jpg" 1 "right" 0.393731 1 0 0 374
2 389 4 5 1 2 3 "redred_2.jpg" 1 "right" 0.327273 1 0 0 375
2 390 4 6 2 1 1 "redblue_4.jpg" 0 "left" 0.421243 1 0 0 376
2 391 4 7 2 2 4 "bluered_1.jpg" 1 "right" 0.543283 1 0 0 377
2 392 4 8 2 2 2 "bluered_3.jpg" 1 "right" 0.337966 1 0 0 378
2 393 4 9 2 2 4 "bluered_1.jpg" 1 "right" 0.300146 1 0 0 379
2 394 4 10 2 1 4 "redblue_1.jpg" 0 "left" 0.432248 1 0 0 380
2 395 4 11 1 2 3 "redred_2.jpg" 1 "right" 0.531645 1 0 0 381
2 396 4 12 2 2 2 "bluered_3.jpg" 1 "right" 0.448947 1 0 0 382
2 397 4 13 2 1 4 "redblue_1.jpg" 0 "left" 1.434057 1 0 0 383
2 398 4 14 2 1 4 "redblue_1.jpg" 0 "left" 0.382675 1 0 0 384
2 399 4 15 1 2 4 "redred_1.jpg" 1 "right" 0.460228 1 0 0 385
2 400 4 16 2 2 1 "bluered_4.jpg" 1 "right" 0.521049 1 0 0 386
2 401 4 17 1 2 1 "redred_4.jpg" 1 "right" 0.620695 1 0 0 387
2 402 4 18 1 2 4 "redred_1.jpg" 1 "right" 0.459898 1 0 0 388
2 403 4 19 1 1 3 "blueblue_2.jpg" 0 "left" 0.626397 1 0 0 389
2 404 4 20 1 2 4 "redred_1.jpg" 1 "right" 0.554079 1 0 0 390
2 405 4 21 2 2 3 "bluered_2.jpg" 1 "right" 0.526467 1 0 0 391
2 406 4 22 1 2 1 "redred_4.jpg" 1 "right" 0.470377 1 0 0 392
2 407 4 23 1 1 3 "blueblue_2.jpg" 0 "left" 0.426652 1 0 0 393
2 408 4 24 2 2 4 "bluered_1.jpg" 1 "right" 0.537023 1 0 0 394
2 409 4 25 2 2 2 "bluered_3.jpg" 1 "right" 1.65528 1 0 0 395
2 410 4 26 1 1 2 "blueblue_3.jpg" 0 "left" 1.422554 1 0 0 396
2 411 4 27 2 1 3 "redblue_2.jpg" 0 "left" 0.637187 1 0 0 397
2 412 4 28 1 1 4 "blueblue_1.jpg" 0 "left" 0.631861 1 0 0 398
2 413 4 29 2 2 4 "bluered_1.jpg" 1 "right" 0.554469 1 0 0 399
2 414 4 30 1 1 4 "blueblue_1.jpg" 0 "left" 0.548686 1 0 0 400
2 415 4 31 1 1 1 "blueblue_4.jpg" 0 "left" 0.426708 1 0 0 401
2 416 4 32 1 1 2 "blueblue_3.jpg" 0 "left" 0.404247 1 0 0 402
2 417 4 33 2 1 2 "redblue_3.jpg" 0 "left" 0.481292 1 0 0 403
2 418 4 34 1 2 1 "redred_4.jpg" 1 "right" 0.405239 1 0 0 404
2 419 4 35 1 2 1 "redred_4.jpg" 1 "right" 0.476208 1 0 0 405
2 420 4 36 2 1 1 "redblue_4.jpg" 0 "left" 0.316598 1 0 0 406
2 421 4 37 1 1 3 "blueblue_2.jpg" 0 "left" 0.343539 1 0 0 407
2 422 4 38 2 2 4 "bluered_1.jpg" 1 "right" 0.371857 1 0 0 408
2 423 4 39 1 2 2 "redred_3.jpg" 1 "right" 0.321986 1 0 0 409
2 424 4 40 1 1 1 "blueblue_4.jpg" 0 "left" 0.332703 1 0 0 410
2 425 4 41 1 1 4 "blueblue_1.jpg" 0 "left" 0.460079 1 0 0 411
2 426 4 42 2 1 1 "redblue_4.jpg" 0 "left" 0.565732 1 0 0 412
2 427 4 43 1 1 4 "blueblue_1.jpg" 0 "left" 0.708292 1 0 0 413
2 428 4 44 2 1 3 "redblue_2.jpg" 0 "left" 0.68144 1 0 0 414
2 429 4 45 2 2 1 "bluered_4.jpg" 1 "right" 0.643679 1 0 0 415
2 430 4 46 2 1 2 "redblue_3.jpg" 0 "left" 0.543159 1 0 0 416
2 431 4 47 1 1 1 "blueblue_4.jpg" 0 "left" 0.476976 1 0 0 417
2 432 4 48 1 2 3 "redred_2.jpg" 1 "right" 0.520818 1 0 0 418
2 433 4 49 1 2 4 "redred_1.jpg" 1 "right" 0.492631 1 0 0 419
2 434 4 50 2 1 2 "redblue_3.jpg" 0 "left" 1.344755 1 0 0 420
2 435 4 51 1 1 1 "blueblue_4.jpg" 0 "left" 0.576743 1 0 0 421
2 436 4 52 2 2 1 "bluered_4.jpg" 1 "right" 0.581945 1 0 0 422
2 437 4 53 1 1 3 "blueblue_2.jpg" 0 "left" 0.786536 1 0 0 423
2 438 4 54 2 1 4 "redblue_1.jpg" 0 "left" 0.78039 1 0 0 424
2 439 4 55 1 2 2 "redred_3.jpg" 1 "right" 0.410379 1 0 0 425
2 440 4 56 2 2 2 "bluered_3.jpg" 1 "right" 0.426792 1 0 0 426
2 441 4 57 1 2 1 "redred_4.jpg" 1 "right" 0.415543 1 0 0 427
2 442 4 58 2 1 1 "redblue_4.jpg" 0 "left" 0.410346 1 0 0 428
2 443 4 59 1 1 4 "blueblue_1.jpg" 0 "left" 0.377348 1 0 0 429
2 444 4 60 2 2 4 "bluered_1.jpg" 1 "right" 0.41065 1 0 0 430
2 445 4 61 2 1 3 "redblue_2.jpg" 0 "left" 0.465729 1 0 0 431
2 446 4 62 2 2 1 "bluered_4.jpg" 1 "right" 0.946761 1 0 0 432
2 447 4 63 1 2 2 "redred_3.jpg" 1 "right" 0.360253 1 0 0 433
2 448 4 64 1 2 4 "redred_1.jpg" 1 "right" 0.387713 1 0 0 434
2 449 4 65 2 2 3 "bluered_2.jpg" 1 "right" 0.327014 1 0 0 435
2 450 4 66 2 2 3 "bluered_2.jpg" 1 "right" 0.310611 1 0 0 436
2 451 4 67 2 2 2 "bluered_3.jpg" 1 "right" 0.34414 1 0 0 437
2 452 4 68 2 2 4 "bluered_1.jpg" 1 "right" 0.349151 1 0 0 438
2 453 4 69 2 1 2 "redblue_3.jpg" 0 "left" 0.34401 1 0 0 439
2 454 4 70 2 1 3 "redblue_2.jpg" 0 "left" 0.316601 1 0 0 440
2 455 4 71 2 1 3 "redblue_2.jpg" 0 "left" 0.714581 1 0 0 441
2 456 4 72 2 2 2 "bluered_3.jpg" 1 "right" 0.49332 1 0 0 442
2 457 4 73 1 1 4 "blueblue_1.jpg" 0 "left" 0.372066 1 0 0 443
2 458 4 74 2 2 1 "bluered_4.jpg" 1 "right" 0.581358 1 0 0 444
2 459 4 75 2 1 3 "redblue_2.jpg" 0 "left" 0.382493 1 0 0 445
2 460 4 76 1 2 3 "redred_2.jpg" 1 "right" 0.482151 1 0 0 446
2 461 4 77 1 2 2 "redred_3.jpg" 1 "right" 0.515138 1 0 0 447
2 462 4 78 2 1 1 "redblue_4.jpg" 0 "left" 1.133736 1 0 0 448
2 463 4 79 1 2 2 "redred_3.jpg" 1 "right" 0.715208 1 0 0 449
2 464 4 80 1 1 1 "blueblue_4.jpg" 0 "left" 0.675545 1 0 0 450
2 465 4 81 2 2 3 "bluered_2.jpg" 0 "left" 0.564555 0 0 0 450
2 466 4 82 2 1 3 "redblue_2.jpg" 0 "left" 2.054393 1 0 0 451
2 467 4 83 2 1 1 "redblue_4.jpg" 0 "left" 0.414889 1 0 0 452
2 468 4 84 2 1 1 "redblue_4.jpg" 0 "left" 0.381433 1 0 0 453
2 469 4 85 1 1 3 "blueblue_2.jpg" 0 "left" 0.654082 1 0 0 454
2 470 4 86 2 2 3 "bluered_2.jpg" 1 "right" 1.012903 1 0 0 455
2 471 4 87 2 1 2 "redblue_3.jpg" 0 "left" 0.432518 1 0 0 456
2 472 4 88 1 1 1 "blueblue_4.jpg" 0 "left" 0.454503 1 0 0 457
2 473 4 89 1 1 1 "blueblue_4.jpg" 0 "left" 0.40455 1 0 0 458
2 474 4 90 2 1 1 "redblue_4.jpg" 0 "left" 0.410007 1 0 0 459
2 475 4 91 1 2 4 "redred_1.jpg" 1 "right" 0.609687 1 0 0 460
2 476 4 92 1 1 3 "blueblue_2.jpg" 0 "left" 0.520611 1 0 0 461
2 477 4 93 1 1 4 "blueblue_1.jpg" 0 "left" 0.454336 1 0 0 462
2 478 4 94 2 1 2 "redblue_3.jpg" 0 "left" 0.360281 1 0 0 463
2 479 4 95 1 1 1 "blueblue_4.jpg" 0 "left" 0.338209 1 0 0 464
2 480 4 96 2 2 1 "bluered_4.jpg" 1 "right" 0.416118 1 0 0 465
2 481 4 97 2 1 2 "redblue_3.jpg" 0 "left" 0.482218 1 0 0 466
2 482 4 98 1 2 2 "redred_3.jpg" 1 "right" 0.371053 1 0 0 467
2 483 4 99 2 2 3 "bluered_2.jpg" 1 "right" 0.322068 1 0 0 468
2 484 4 100 1 2 3 "redred_2.jpg" 1 "right" 0.309831 1 0 0 469
2 485 4 101 1 2 3 "redred_2.jpg" 1 "right" 0.460383 1 0 0 470
2 486 4 102 1 1 2 "blueblue_3.jpg" 0 "left" 0.371231 1 0 0 471
2 487 4 103 1 2 2 "redred_3.jpg" 0 "left" 0.4044 0 0 0 471
2 488 4 104 1 2 1 "redred_4.jpg" 1 "right" 1.218416 1 0 0 472
2 489 4 105 1 1 1 "blueblue_4.jpg" 0 "left" 0.40426 1 0 0 473
2 490 4 106 1 1 1 "blueblue_4.jpg" 0 "left" 0.371942 1 0 0 474
2 491 4 107 1 1 3 "blueblue_2.jpg" 0 "left" 1.339644 1 0 0 475
2 492 4 108 1 1 4 "blueblue_1.jpg" 0 "left" 0.50964 1 0 0 476
2 493 4 109 2 2 2 "bluered_3.jpg" 1 "right" 0.498951 1 0 0 477
2 494 4 110 1 1 2 "blueblue_3.jpg" 0 "left" 0.443761 1 0 0 478
2 495 4 111 1 1 3 "blueblue_2.jpg" 0 "left" 0.40018 1 0 0 479
2 496 4 112 2 2 3 "bluered_2.jpg" 1 "right" 0.908302 1 0 0 480
2 497 4 113 2 1 4 "redblue_1.jpg" 0 "left" 1.234574 1 0 0 481
2 498 4 114 1 2 1 "redred_4.jpg" 1 "right" 0.614469 1 0 0 482
2 499 4 115 1 1 3 "blueblue_2.jpg" 0 "left" 1.478036 1 0 0 483
2 500 4 116 1 1 4 "blueblue_1.jpg" 0 "left" 0.626596 1 0 0 484
2 501 4 117 1 1 3 "blueblue_2.jpg" 0 "left" 0.471365 1 0 0 485
2 502 4 118 1 1 4 "blueblue_1.jpg" 0 "left" 0.421461 1 0 0 486
2 503 4 119 1 1 2 "blueblue_3.jpg" 0 "left" 0.333203 1 0 0 487
2 504 4 120 1 2 4 "redred_1.jpg" 1 "right" 0.620087 1 0 0 488
2 505 4 121 2 2 2 "bluered_3.jpg" 1 "right" 0.576713 1 0 0 489
2 506 4 122 1 1 1 "blueblue_4.jpg" 0 "left" 0.492746 1 0 0 490
2 507 4 123 2 1 3 "redblue_2.jpg" 0 "left" 0.731567 1 0 0 491
2 508 4 124 2 2 3 "bluered_2.jpg" 1 "right" 0.537531 1 0 0 492
2 509 4 125 2 1 2 "redblue_3.jpg" 0 "left" 0.481975 1 0 0 493
2 510 4 126 1 2 4 "redred_1.jpg" 1 "right" 0.548674 1 0 0 494
2 511 4 127 2 2 2 "bluered_3.jpg" 1 "right" 0.487299 1 0 0 495
2 512 4 128 2 2 2 "bluered_3.jpg" 1 "right" 0.376601 1 0 0 496
2 513 5 1 2 1 3 "redblue_2.jpg" 0 "left" 1.593672 1 0 0 497
2 514 5 2 2 1 2 "redblue_3.jpg" 0 "left" 0.504198 1 0 0 498
2 515 5 3 2 1 1 "redblue_4.jpg" 0 "left" 1.69941 1 0 0 499
2 516 5 4 1 2 3 "redred_2.jpg" 1 "right" 0.349133 1 0 0 500
2 517 5 5 1 1 2 "blueblue_3.jpg" 0 "left" 0.360683 1 0 0 501
2 518 5 6 2 1 2 "redblue_3.jpg" 0 "left" 0.294419 1 0 0 502
2 519 5 7 1 2 2 "redred_3.jpg" 1 "right" 0.333121 1 0 0 503
2 520 5 8 2 2 3 "bluered_2.jpg" 1 "right" 0.37194 1 0 0 504
2 521 5 9 1 1 1 "blueblue_4.jpg" 0 "left" 0.371245 1 0 0 505
2 522 5 10 2 2 4 "bluered_1.jpg" 1 "right" 0.349896 1 0 0 506
2 523 5 11 2 2 2 "bluered_3.jpg" 1 "right" 0.343735 1 0 0 507
2 524 5 12 2 1 1 "redblue_4.jpg" 0 "left" 0.39362 1 0 0 508
2 525 5 13 2 1 1 "redblue_4.jpg" 0 "left" 0.349617 1 0 0 509
2 526 5 14 1 1 3 "blueblue_2.jpg" 0 "left" 0.282949 1 0 0 510
2 527 5 15 2 1 2 "redblue_3.jpg" 0 "left" 0.28891 1 0 0 511
2 528 5 16 1 2 4 "redred_1.jpg" 1 "right" 0.321802 1 0 0 512
2 529 5 17 2 2 4 "bluered_1.jpg" 1 "right" 0.305424 1 0 0 513
2 530 5 18 1 2 1 "redred_4.jpg" 1 "right" 0.277011 1 0 0 514
2 531 5 19 2 2 1 "bluered_4.jpg" 1 "right" 0.250037 1 0 0 515
2 532 5 20 1 1 1 "blueblue_4.jpg" 0 "left" 0.427014 1 0 0 516
2 533 5 21 1 2 3 "redred_2.jpg" 1 "right" 0.376406 1 0 0 517
2 534 5 22 1 1 2 "blueblue_3.jpg" 0 "left" 0.41639 1 0 0 518
2 535 5 23 2 1 1 "redblue_4.jpg" 0 "left" 1.017148 1 0 0 519
2 536 5 24 2 1 3 "redblue_2.jpg" 0 "left" 0.38279 1 0 0 520
2 537 5 25 1 1 4 "blueblue_1.jpg" 0 "left" 0.570422 1 0 0 521
2 538 5 26 2 2 1 "bluered_4.jpg" 1 "right" 0.482263 1 0 0 522
2 539 5 27 2 2 1 "bluered_4.jpg" 1 "right" 0.294151 1 0 0 523
2 540 5 28 2 2 4 "bluered_1.jpg" 1 "right" 0.487662 1 0 0 524
2 541 5 29 2 2 2 "bluered_3.jpg" 1 "right" 0.465281 1 0 0 525
2 542 5 30 2 2 1 "bluered_4.jpg" 1 "right" 0.333173 1 0 0 526
2 543 5 31 2 2 2 "bluered_3.jpg" 1 "right" 0.338889 1 0 0 527
2 544 5 32 2 1 3 "redblue_2.jpg" 0 "left" 0.427624 1 0 0 528
2 545 5 33 1 1 1 "blueblue_4.jpg" 0 "left" 0.459781 1 0 0 529
2 546 5 34 2 1 3 "redblue_2.jpg" 0 "left" 0.39969 1 0 0 530
2 547 5 35 1 2 4 "redred_1.jpg" 1 "right" 0.426817 1 0 0 531
2 548 5 36 2 1 2 "redblue_3.jpg" 0 "left" 0.520146 1 0 0 532
2 549 5 37 1 2 1 "redred_4.jpg" 1 "right" 0.443527 1 0 0 533
2 550 5 38 1 1 2 "blueblue_3.jpg" 0 "left" 0.70346 1 0 0 534
2 551 5 39 1 2 2 "redred_3.jpg" 1 "right" 0.796914 1 0 0 535
2 552 5 40 2 1 3 "redblue_2.jpg" 0 "left" 0.620915 1 0 0 536
2 553 5 41 2 1 4 "redblue_1.jpg" 0 "left" 0.582284 1 0 0 537
2 554 5 42 2 1 3 "redblue_2.jpg" 0 "left" 0.830677 1 0 0 538
2 555 5 43 2 2 3 "bluered_2.jpg" 1 "right" 0.514359 1 0 0 539
2 556 5 44 1 2 1 "redred_4.jpg" 1 "right" 0.653148 1 0 0 540
2 557 5 45 2 1 4 "redblue_1.jpg" 0 "left" 0.47619 1 0 0 541
2 558 5 46 2 2 2 "bluered_3.jpg" 1 "right" 0.504378 1 0 0 542
2 559 5 47 2 2 1 "bluered_4.jpg" 1 "right" 0.504165 1 0 0 543
2 560 5 48 2 1 2 "redblue_3.jpg" 0 "left" 0.482205 1 0 0 544
2 561 5 49 2 2 3 "bluered_2.jpg" 1 "right" 1.827106 1 0 0 545
2 562 5 50 2 1 2 "redblue_3.jpg" 0 "left" 0.426838 1 0 0 546
2 563 5 51 1 2 1 "redred_4.jpg" 1 "right" 0.553329 1 0 0 547
2 564 5 52 1 1 2 "blueblue_3.jpg" 0 "left" 0.659613 1 0 0 548
2 565 5 53 2 1 1 "redblue_4.jpg" 0 "left" 0.603168 1 0 0 549
2 566 5 54 2 2 4 "bluered_1.jpg" 1 "right" 0.498264 1 0 0 550
2 567 5 55 1 1 3 "blueblue_2.jpg" 0 "left" 0.509812 1 0 0 551
2 568 5 56 1 2 4 "redred_1.jpg" 1 "right" 0.774317 1 0 0 552
2 569 5 57 1 1 1 "blueblue_4.jpg" 0 "left" 0.421554 1 0 0 553
2 570 5 58 2 1 3 "redblue_2.jpg" 0 "left" 0.349238 1 0 0 554
2 571 5 59 1 2 3 "redred_2.jpg" 1 "right" 0.383161 1 0 0 555
2 572 5 60 1 1 3 "blueblue_2.jpg" 0 "left" 0.482938 1 0 0 556
2 573 5 61 2 1 3 "redblue_2.jpg" 0 "left" 0.310814 1 0 0 557
2 574 5 62 2 1 3 "redblue_2.jpg" 0 "left" 1.321594 1 0 0 558
2 575 5 63 2 2 4 "bluered_1.jpg" 1 "right" 1.836105 1 0 0 559
2 576 5 64 2 2 3 "bluered_2.jpg" 1 "right" 1.661317 1 0 0 560
2 577 5 65 2 2 3 "bluered_2.jpg" 1 "right" 0.332911 1 0 0 561
2 578 5 66 2 1 1 "redblue_4.jpg" 0 "left" 0.415148 1 0 0 562
2 579 5 67 1 2 4 "redred_1.jpg" 1 "right" 0.299818 1 0 0 563
2 580 5 68 2 1 2 "redblue_3.jpg" 0 "left" 0.294181 1 0 0 564
2 581 5 69 2 2 4 "bluered_1.jpg" 1 "right" 0.272057 1 0 0 565
2 582 5 70 1 1 2 "blueblue_3.jpg" 0 "left" 0.304803 1 0 0 566
2 583 5 71 1 2 1 "redred_4.jpg" 1 "right" 0.310258 1 0 0 567
2 584 5 72 2 1 4 "redblue_1.jpg" 0 "left" 0.293379 1 0 0 568
2 585 5 73 1 1 4 "blueblue_1.jpg" 0 "left" 0.421383 1 0 0 569
2 586 5 74 1 1 1 "blueblue_4.jpg" 0 "left" 0.288823 1 0 0 570
2 587 5 75 1 2 3 "redred_2.jpg" 1 "right" 0.332492 1 0 0 571
2 588 5 76 2 2 4 "bluered_1.jpg" 1 "right" 0.277672 1 0 0 572
2 589 5 77 1 2 1 "redred_4.jpg" 1 "right" 0.293422 1 0 0 573
2 590 5 78 1 2 1 "redred_4.jpg" 1 "right" 0.277462 1 0 0 574
2 591 5 79 2 2 2 "bluered_3.jpg" 1 "right" 0.249864 1 0 0 575
2 592 5 80 2 1 1 "redblue_4.jpg" 0 "left" 0.387596 1 0 0 576
2 593 5 81 1 2 2 "redred_3.jpg" 1 "right" 0.475984 1 0 0 577
2 594 5 82 2 2 4 "bluered_1.jpg" 1 "right" 0.614706 1 0 0 578
2 595 5 83 2 1 4 "redblue_1.jpg" 0 "left" 0.642214 1 0 0 579
2 596 5 84 1 1 2 "blueblue_3.jpg" 0 "left" 0.576041 1 0 0 580
2 597 5 85 1 2 2 "redred_3.jpg" 1 "right" 0.581189 1 0 0 581
2 598 5 86 1 2 3 "redred_2.jpg" 1 "right" 0.874617 1 0 0 582
2 599 5 87 1 2 2 "redred_3.jpg" 1 "right" 0.774952 1 0 0 583
2 600 5 88 1 1 4 "blueblue_1.jpg" 0 "left" 0.736072 1 0 0 584
2 601 5 89 2 2 2 "bluered_3.jpg" 1 "right" 0.75879 1 0 0 585
2 602 5 90 1 2 1 "redred_4.jpg" 1 "right" 1.35555 1 0 0 586
2 603 5 91 2 2 1 "bluered_4.jpg" 1 "right" 0.437173 1 0 0 587
2 604 5 92 1 1 3 "blueblue_2.jpg" 0 "left" 0.570718 1 0 0 588
2 605 5 93 2 1 4 "redblue_1.jpg" 0 "left" 0.802534 1 0 0 589
2 606 5 94 1 1 2 "blueblue_3.jpg" 0 "left" 0.388021 1 0 0 590
2 607 5 95 2 2 1 "bluered_4.jpg" 1 "right" 0.359931 1 0 0 591
2 608 5 96 2 1 2 "redblue_3.jpg" 0 "left" 0.415592 1 0 0 592
2 609 5 97 2 1 3 "redblue_2.jpg" 0 "left" 0.885867 1 0 0 593
2 610 5 98 2 1 3 "redblue_2.jpg" 0 "left" 0.360623 1 0 0 594
2 611 5 99 1 2 3 "redred_2.jpg" 1 "right" 0.321623 1 0 0 595
2 612 5 100 2 1 4 "redblue_1.jpg" 0 "left" 0.276769 1 0 0 596
2 613 5 101 2 2 4 "bluered_1.jpg" 1 "right" 0.238775 1 0 0 597
2 614 5 102 1 2 4 "redred_1.jpg" 0 "left" 0.266064 0 0 0 597
2 615 5 103 2 2 1 "bluered_4.jpg" 1 "right" 0.410178 1 0 0 598
2 616 5 104 2 2 4 "bluered_1.jpg" 1 "right" 0.354554 1 0 0 599
2 617 5 105 2 2 3 "bluered_2.jpg" 1 "right" 0.282945 1 0 0 600
2 618 5 106 2 1 3 "redblue_2.jpg" 0 "left" 0.216621 1 0 0 601
2 619 5 107 1 2 3 "redred_2.jpg" 1 "right" 0.332557 1 0 0 602
2 620 5 108 2 2 1 "bluered_4.jpg" 1 "right" 0.27744 1 0 0 603
2 621 5 109 1 1 2 "blueblue_3.jpg" 0 "left" 0.360381 1 0 0 604
2 622 5 110 2 1 3 "redblue_2.jpg" 0 "left" 0.332625 1 0 0 605
2 623 5 111 2 2 4 "bluered_1.jpg" 1 "right" 0.321552 1 0 0 606
2 624 5 112 1 2 2 "redred_3.jpg" 1 "right" 0.471429 1 0 0 607
2 625 5 113 2 1 4 "redblue_1.jpg" 0 "left" 0.299487 1 0 0 608
2 626 5 114 2 2 2 "bluered_3.jpg" 1 "right" 0.388221 1 0 0 609
2 627 5 115 1 2 2 "redred_3.jpg" 1 "right" 0.532181 1 0 0 610
2 628 5 116 1 2 4 "redred_1.jpg" 1 "right" 0.664528 1 0 0 611
2 629 5 117 2 1 4 "redblue_1.jpg" 0 "left" 0.548457 1 0 0 612
2 630 5 118 2 1 4 "redblue_1.jpg" 0 "left" 0.443233 1 0 0 613
2 631 5 119 1 1 1 "blueblue_4.jpg" 0 "left" 0.355465 1 0 0 614
2 632 5 120 1 2 3 "redred_2.jpg" 1 "right" 0.448334 1 0 0 615
2 633 5 121 1 1 3 "blueblue_2.jpg" 0 "left" 0.426894 1 0 0 616
2 634 5 122 2 2 4 "bluered_1.jpg" 1 "right" 0.615152 1 0 0 617
2 635 5 123 2 1 4 "redblue_1.jpg" 0 "left" 0.421981 1 0 0 618
2 636 5 124 1 1 4 "blueblue_1.jpg" 0 "left" 0.454226 1 0 0 619
2 637 5 125 2 2 4 "bluered_1.jpg" 1 "right" 0.813524 1 0 0 620
2 638 5 126 2 2 3 "bluered_2.jpg" 1 "right" 0.84312 1 0 0 621
2 639 5 127 1 1 2 "blueblue_3.jpg" 0 "left" 0.614869 1 0 0 622
2 640 5 128 1 2 1 "redred_4.jpg" 1 "right" 0.421404 1 0 0 623
3 1 1 1 2 1 4 "redblue_1.jpg" 0 "left" 1.909477 1 0 0 1
3 2 1 2 2 2 2 "bluered_3.jpg" 1 "right" 2.220695 1 0 0 2
3 3 1 3 2 1 3 "redblue_2.jpg" 0 "left" 1.650693 1 0 0 3
3 4 1 4 1 1 1 "blueblue_4.jpg" 0 "left" 1.617516 1 0 0 4
3 5 1 5 2 2 2 "bluered_3.jpg" 1 "right" 0.992281 1 0 0 5
3 6 1 6 1 2 4 "redred_1.jpg" 1 "right" 1.258219 1 0 0 6
3 7 1 7 1 1 3 "blueblue_2.jpg" 0 "left" 0.527008 1 0 0 7
3 8 1 8 1 1 4 "blueblue_1.jpg" 0 "left" 0.798074 1 0 0 8
3 9 1 9 2 1 1 "redblue_4.jpg" 0 "left" 1.074731 1 0 0 9
3 10 1 10 2 2 4 "bluered_1.jpg" 1 "right" 0.582169 1 0 0 10
3 11 1 11 2 2 2 "bluered_3.jpg" 1 "right" 0.68181 1 0 0 11
3 12 1 12 1 1 2 "blueblue_3.jpg" 0 "left" 0.382778 1 0 0 12
3 13 1 13 2 2 4 "bluered_1.jpg" 1 "right" 0.476723 1 0 0 13
3 14 1 14 1 2 1 "redred_4.jpg" 1 "right" 0.593075 1 0 0 14
3 15 1 15 2 2 2 "bluered_3.jpg" 1 "right" 0.947597 1 0 0 15
3 16 1 16 1 1 4 "blueblue_1.jpg" 0 "left" 1.012806 1 0 0 16
3 17 1 17 1 2 3 "redred_2.jpg" 1 "right" 0.576028 1 0 0 17
3 18 1 18 2 1 2 "redblue_3.jpg" 0 "left" 0.764735 1 0 0 18
3 19 1 19 2 2 2 "bluered_3.jpg" 1 "right" 1.09719 1 0 0 19
3 20 1 20 1 1 2 "blueblue_3.jpg" 0 "left" 0.753518 1 0 0 20
3 21 1 21 2 2 2 "bluered_3.jpg" 0 "left" 0.76024 0 0 0 20
3 22 1 22 2 1 3 "redblue_2.jpg" 0 "left" 1.673454 1 0 0 21
3 23 1 23 1 2 2 "redred_3.jpg" 1 "right" 1.411917 1 0 0 22
3 24 1 24 2 2 3 "bluered_2.jpg" 1 "right" 1.396709 1 0 0 23
3 25 1 25 2 1 4 "redblue_1.jpg" 0 "left" 1.152511 1 0 0 24
3 26 1 26 2 1 3 "redblue_2.jpg" 0 "left" 1.14776 1 0 0 25
3 27 1 27 2 2 4 "bluered_1.jpg" 1 "right" 0.99238 1 0 0 26
3 28 1 28 1 1 4 "blueblue_1.jpg" 0 "left" 0.532408 1 0 0 27
3 29 1 29 2 2 3 "bluered_2.jpg" 1 "right" 1.512351 1 0 0 28
3 30 1 30 1 2 4 "redred_1.jpg" 1 "right" 0.604423 1 0 0 29
3 31 1 31 1 1 2 "blueblue_3.jpg" 0 "left" 0.376535 1 0 0 30
3 32 1 32 2 2 4 "bluered_1.jpg" 1 "right" 0.543496 1 0 0 31
3 33 1 33 2 2 2 "bluered_3.jpg" 1 "right" 0.820421 1 0 0 32
3 34 1 34 2 2 2 "bluered_3.jpg" 1 "right" 0.836598 1 0 0 33
3 35 1 35 2 2 3 "bluered_2.jpg" 1 "right" 0.903201 1 0 0 34
3 36 1 36 2 2 4 "bluered_1.jpg" 1 "right" 0.470812 1 0 0 35
3 37 1 37 2 1 2 "redblue_3.jpg" 0 "left" 0.570509 1 0 0 36
3 38 1 38 1 2 2 "redred_3.jpg" 1 "right" 0.587155 1 0 0 37
3 39 1 39 1 1 1 "blueblue_4.jpg" 0 "left" 0.416396 1 0 0 38
3 40 1 40 2 2 3 "bluered_2.jpg" 1 "right" 0.974601 1 0 0 39
3 41 1 41 1 2 3 "redred_2.jpg" 1 "right" 0.632739 1 0 0 40
3 42 1 42 2 2 1 "bluered_4.jpg" 1 "right" 1.196974 1 0 0 41
3 43 1 43 2 1 2 "redblue_3.jpg" 0 "left" 0.404699 1 0 0 42
3 44 1 44 2 2 1 "bluered_4.jpg" 1 "right" 0.936121 1 0 0 43
3 45 1 45 2 2 4 "bluered_1.jpg" 1 "right" 0.742771 1 0 0 44
3 46 1 46 2 1 3 "redblue_2.jpg" 0 "left" 0.658939 1 0 0 45
3 47 1 47 1 2 3 "redred_2.jpg" 1 "right" 0.710091 1 0 0 46
3 48 1 48 1 2 4 "redred_1.jpg" 1 "right" 0.599059 1 0 0 47
3 49 1 49 1 2 3 "redred_2.jpg" 1 "right" 0.509488 1 0 0 48
3 50 1 50 1 1 4 "blueblue_1.jpg" 0 "left" 0.793298 1 0 0 49
3 51 1 51 1 2 1 "redred_4.jpg" 1 "right" 0.548671 1 0 0 50
3 52 1 52 2 1 2 "redblue_3.jpg" 0 "left" 0.91547 1 0 0 51
3 53 1 53 2 1 2 "redblue_3.jpg" 0 "left" 1.140945 1 0 0 52
3 54 1 54 2 1 3 "redblue_2.jpg" 0 "left" 1.582818 1 0 0 53
3 55 1 55 2 2 3 "bluered_2.jpg" 1 "right" 1.42857 1 0 0 54
3 56 1 56 1 1 1 "blueblue_4.jpg" 0 "left" 0.78675 1 0 0 55
3 57 1 57 2 2 2 "bluered_3.jpg" 1 "right" 0.948857 1 0 0 56
3 58 1 58 2 2 3 "bluered_2.jpg" 1 "right" 1.882843 1 0 0 57
3 59 1 59 2 1 2 "redblue_3.jpg" 0 "left" 1.378155 1 0 0 58
3 60 1 60 1 1 4 "blueblue_1.jpg" 0 "left" 1.019411 1 0 0 59
3 61 1 61 2 1 4 "redblue_1.jpg" 0 "left" 0.858968 1 0 0 60
3 62 1 62 1 2 1 "redred_4.jpg" 1 "right" 1.208022 1 0 0 61
3 63 1 63 1 1 1 "blueblue_4.jpg" 0 "left" 0.836794 1 0 0 62
3 64 1 64 2 2 3 "bluered_2.jpg" 1 "right" 1.102497 1 0 0 63
3 65 1 65 1 2 1 "redred_4.jpg" 1 "right" 0.698047 1 0 0 64
3 66 1 66 1 1 1 "blueblue_4.jpg" 0 "left" 0.941713 1 0 0 65
3 67 1 67 1 1 2 "blueblue_3.jpg" 0 "left" 0.625983 1 0 0 66
3 68 1 68 1 1 1 "blueblue_4.jpg" 0 "left" 0.521527 1 0 0 67
3 69 1 69 1 2 1 "redred_4.jpg" 1 "right" 0.742019 1 0 0 68
3 70 1 70 1 2 1 "redred_4.jpg" 1 "right" 0.488126 1 0 0 69
3 71 1 71 2 2 4 "bluered_1.jpg" 1 "right" 0.571385 1 0 0 70
3 72 1 72 2 2 2 "bluered_3.jpg" 1 "right" 0.477263 1 0 0 71
3 73 1 73 2 1 2 "redblue_3.jpg" 0 "left" 0.416081 1 0 0 72
3 74 1 74 1 1 4 "blueblue_1.jpg" 0 "left" 0.32715 1 0 0 73
3 75 1 75 1 1 2 "blueblue_3.jpg" 0 "left" 0.355231 1 0 0 74
3 76 1 76 2 2 1 "bluered_4.jpg" 1 "right" 0.460399 1 0 0 75
3 77 1 77 1 2 2 "redred_3.jpg" 1 "right" 0.548957 1 0 0 76
3 78 1 78 2 2 1 "bluered_4.jpg" 1 "right" 0.411091 1 0 0 77
3 79 1 79 1 2 2 "redred_3.jpg" 1 "right" 0.377707 1 0 0 78
3 80 1 80 2 2 4 "bluered_1.jpg" 1 "right" 0.377011 1 0 0 79
3 81 1 81 1 2 2 "redred_3.jpg" 1 "right" 0.393779 1 0 0 80
3 82 1 82 2 1 4 "redblue_1.jpg" 0 "left" 0.350078 1 0 0 81
3 83 1 83 2 1 3 "redblue_2.jpg" 0 "left" 0.516008 1 0 0 82
3 84 1 84 2 1 4 "redblue_1.jpg" 0 "left" 0.405286 1 0 0 83
3 85 1 85 1 1 4 "blueblue_1.jpg" 0 "left" 0.33862 1 0 0 84
3 86 1 86 1 1 2 "blueblue_3.jpg" 0 "left" 0.449189 1 0 0 85
3 87 1 87 2 1 1 "redblue_4.jpg" 0 "left" 0.371673 1 0 0 86
3 88 1 88 2 2 3 "bluered_2.jpg" 1 "right" 0.388208 1 0 0 87
3 89 1 89 2 1 1 "redblue_4.jpg" 0 "left" 1.118944 1 0 0 88
3 90 1 90 2 2 4 "bluered_1.jpg" 1 "right" 0.715291 1 0 0 89
3 91 1 91 1 2 3 "redred_2.jpg" 1 "right" 0.775524 1 0 0 90
3 92 1 92 2 2 1 "bluered_4.jpg" 1 "right" 1.334661 1 0 0 91
3 93 1 93 2 2 4 "bluered_1.jpg" 1 "right" 0.981213 1 0 0 92
3 94 1 94 2 2 1 "bluered_4.jpg" 1 "right" 1.322751 1 0 0 93
3 95 1 95 1 2 4 "redred_1.jpg" 1 "right" 0.543264 1 0 0 94
3 96 1 96 1 1 3 "blueblue_2.jpg" 0 "left" 0.355246 1 0 0 95
3 97 1 97 2 2 4 "bluered_1.jpg" 1 "right" 0.438519 1 0 0 96
3 98 1 98 1 2 2 "redred_3.jpg" 1 "right" 0.537326 1 0 0 97
3 99 1 99 1 1 1 "blueblue_4.jpg" 0 "left" 0.770185 1 0 0 98
3 100 1 100 1 1 1 "blueblue_4.jpg" 0 "left" 0.365832 1 0 0 99
3 101 1 101 1 1 4 "blueblue_1.jpg" 0 "left" 0.428928 1 0 0 100
3 102 1 102 1 1 3 "blueblue_2.jpg" 0 "left" 0.360873 1 0 0 101
3 103 1 103 2 1 3 "redblue_2.jpg" 0 "left" 0.382421 1 0 0 102
3 104 1 104 2 1 4 "redblue_1.jpg" 0 "left" 0.46595 1 0 0 103
3 105 1 105 1 2 1 "redred_4.jpg" 1 "right" 0.344354 1 0 0 104
3 106 1 106 1 2 4 "redred_1.jpg" 1 "right" 0.438185 1 0 0 105
3 107 1 107 1 1 1 "blueblue_4.jpg" 0 "left" 0.344221 1 0 0 106
3 108 1 108 1 1 3 "blueblue_2.jpg" 0 "left" 0.71418 1 0 0 107
3 109 1 109 2 1 3 "redblue_2.jpg" 0 "left" 0.604454 1 0 0 108
3 110 1 110 1 1 1 "blueblue_4.jpg" 0 "left" 0.34963 1 0 0 109
3 111 1 111 1 1 2 "blueblue_3.jpg" 0 "left" 0.609858 1 0 0 110
3 112 1 112 2 1 4 "redblue_1.jpg" 0 "left" 0.537833 1 0 0 111
3 113 1 113 2 2 1 "bluered_4.jpg" 1 "right" 0.842878 1 0 0 112
3 114 1 114 2 2 1 "bluered_4.jpg" 1 "right" 0.758726 1 0 0 113
3 115 1 115 1 1 4 "blueblue_1.jpg" 0 "left" 0.554473 1 0 0 114
3 116 1 116 2 2 3 "bluered_2.jpg" 1 "right" 0.538645 1 0 0 115
3 117 1 117 2 1 1 "redblue_4.jpg" 0 "left" 1.113382 1 0 0 116
3 118 1 118 2 2 3 "bluered_2.jpg" 1 "right" 0.726617 1 0 0 117
3 119 1 119 1 1 1 "blueblue_4.jpg" 0 "left" 0.785759 1 0 0 118
3 120 1 120 2 1 2 "redblue_3.jpg" 0 "left" 1.351151 1 0 0 119
3 121 1 121 1 2 2 "redred_3.jpg" 1 "right" 0.604102 1 0 0 120
3 122 1 122 1 2 3 "redred_2.jpg" 1 "right" 0.753333 1 0 0 121
3 123 1 123 1 1 4 "blueblue_1.jpg" 0 "left" 0.758596 1 0 0 122
3 124 1 124 1 1 3 "blueblue_2.jpg" 0 "left" 0.476823 1 0 0 123
3 125 1 125 2 1 2 "redblue_3.jpg" 0 "left" 0.764407 1 0 0 124
3 126 1 126 2 1 4 "redblue_1.jpg" 0 "left" 0.544151 1 0 0 125
3 127 1 127 1 2 3 "redred_2.jpg" 1 "right" 0.509565 1 0 0 126
3 128 1 128 2 1 1 "redblue_4.jpg" 0 "left" 0.603589 1 0 0 127
3 129 2 1 2 2 1 "bluered_4.jpg" 1 "right" 2.141472 1 0 0 128
3 130 2 2 1 1 1 "blueblue_4.jpg" 0 "left" 0.388916 1 0 0 129
3 131 2 3 1 1 2 "blueblue_3.jpg" 0 "left" 0.515293 1 0 0 130
3 132 2 4 2 2 4 "bluered_1.jpg" 1 "right" 0.344251 1 0 0 131
3 133 2 5 1 1 1 "blueblue_4.jpg" 0 "left" 0.372078 1 0 0 132
3 134 2 6 1 2 3 "redred_2.jpg" 1 "right" 0.675796 1 0 0 133
3 135 2 7 1 1 4 "blueblue_1.jpg" 1 "right" 0.544091 0 0 0 133
3 136 2 8 2 2 3 "bluered_2.jpg" 1 "right" 0.676607 1 0 0 134
3 137 2 9 2 1 1 "redblue_4.jpg" 0 "left" 0.797855 1 0 0 135
3 138 2 10 1 1 2 "blueblue_3.jpg" 0 "left" 0.444388 1 0 0 136
3 139 2 11 1 2 4 "redred_1.jpg" 1 "right" 0.769729 1 0 0 137
3 140 2 12 2 1 4 "redblue_1.jpg" 0 "left" 0.676911 1 0 0 138
3 141 2 13 1 1 3 "blueblue_2.jpg" 0 "left" 0.482482 1 0 0 139
3 142 2 14 2 1 4 "redblue_1.jpg" 0 "left" 0.498656 1 0 0 140
3 143 2 15 1 2 3 "redred_2.jpg" 1 "right" 0.322791 1 0 0 141
3 144 2 16 1 1 2 "blueblue_3.jpg" 0 "left" 0.620354 1 0 0 142
3 145 2 17 1 2 1 "redred_4.jpg" 1 "right" 0.549991 1 0 0 143
3 146 2 18 2 2 1 "bluered_4.jpg" 1 "right" 0.887924 1 0 0 144
3 147 2 19 2 2 3 "bluered_2.jpg" 1 "right" 0.555506 1 0 0 145
3 148 2 20 2 1 4 "redblue_1.jpg" 0 "left" 0.310637 1 0 0 146
3 149 2 21 1 1 3 "blueblue_2.jpg" 0 "left" 0.411077 1 0 0 147
3 150 2 22 2 2 3 "bluered_2.jpg" 1 "right" 0.394191 1 0 0 148
3 151 2 23 1 2 1 "redred_4.jpg" 1 "right" 0.455435 1 0 0 149
3 152 2 24 2 1 2 "redblue_3.jpg" 0 "left" 0.482316 1 0 0 150
3 153 2 25 2 1 4 "redblue_1.jpg" 0 "left" 0.471332 1 0 0 151
3 154 2 26 2 2 3 "bluered_2.jpg" 1 "right" 0.637443 1 0 0 152
3 155 2 27 2 1 4 "redblue_1.jpg" 0 "left" 0.548304 1 0 0 153
3 156 2 28 1 1 2 "blueblue_3.jpg" 0 "left" 0.87984 1 0 0 154
3 157 2 29 1 2 2 "redred_3.jpg" 1 "right" 0.388639 1 0 0 155
3 158 2 30 2 2 1 "bluered_4.jpg" 1 "right" 0.77014 1 0 0 156
3 159 2 31 1 1 4 "blueblue_1.jpg" 0 "left" 0.615976 1 0 0 157
3 160 2 32 2 1 2 "redblue_3.jpg" 0 "left" 1.451565 1 0 0 158
3 161 2 33 1 2 2 "redred_3.jpg" 1 "right" 0.344131 1 0 0 159
3 162 2 34 1 1 3 "blueblue_2.jpg" 0 "left" 0.632098 1 0 0 160
3 163 2 35 2 2 2 "bluered_3.jpg" 1 "right" 0.997037 1 0 0 161
3 164 2 36 1 2 3 "redred_2.jpg" 1 "right" 0.5046 1 0 0 162
3 165 2 37 1 1 3 "blueblue_2.jpg" 0 "left" 0.449903 1 0 0 163
3 166 2 38 1 2 4 "redred_1.jpg" 1 "right" 0.830598 1 0 0 164
3 167 2 39 2 2 1 "bluered_4.jpg" 1 "right" 0.764522 1 0 0 165
3 168 2 40 1 2 4 "redred_1.jpg" 1 "right" 0.476927 1 0 0 166
3 169 2 41 1 1 1 "blueblue_4.jpg" 0 "left" 0.405525 1 0 0 167
3 170 2 42 1 1 1 "blueblue_4.jpg" 0 "left" 0.554366 1 0 0 168
3 171 2 43 1 2 1 "redred_4.jpg" 1 "right" 0.459756 1 0 0 169
3 172 2 44 2 1 1 "redblue_4.jpg" 0 "left" 0.348834 1 0 0 170
3 173 2 45 2 2 1 "bluered_4.jpg" 1 "right" 0.393587 1 0 0 171
3 174 2 46 2 1 4 "redblue_1.jpg" 0 "left" 0.421352 1 0 0 172
3 175 2 47 2 1 4 "redblue_1.jpg" 0 "left" 0.327635 1 0 0 173
3 176 2 48 2 2 4 "bluered_1.jpg" 1 "right" 0.366604 1 0 0 174
3 177 2 49 2 1 4 "redblue_1.jpg" 0 "left" 0.521133 1 0 0 175
3 178 2 50 1 1 1 "blueblue_4.jpg" 0 "left" 0.482856 1 0 0 176
3 179 2 51 2 1 3 "redblue_2.jpg" 0 "left" 0.422329 1 0 0 177
3 180 2 52 1 2 2 "redred_3.jpg" 1 "right" 0.537578 1 0 0 178
3 181 2 53 1 1 2 "blueblue_3.jpg" 0 "left" 0.842612 1 0 0 179
3 182 2 54 1 2 2 "redred_3.jpg" 1 "right" 0.659946 1 0 0 180
3 183 2 55 2 1 2 "redblue_3.jpg" 0 "left" 0.565348 1 0 0 181
3 184 2 56 2 2 3 "bluered_2.jpg" 1 "right" 0.842343 1 0 0 182
3 185 2 57 2 2 1 "bluered_4.jpg" 1 "right" 0.947309 1 0 0 183
3 186 2 58 1 1 3 "blueblue_2.jpg" 0 "left" 0.427439 1 0 0 184
3 187 2 59 1 1 1 "blueblue_4.jpg" 0 "left" 0.32693 1 0 0 185
3 188 2 60 1 2 2 "redred_3.jpg" 1 "right" 0.344036 1 0 0 186
3 189 2 61 2 2 4 "bluered_1.jpg" 1 "right" 0.327904 1 0 0 187
3 190 2 62 2 1 3 "redblue_2.jpg" 0 "left" 0.730098 1 0 0 188
3 191 2 63 2 2 3 "bluered_2.jpg" 1 "right" 0.576617 1 0 0 189
3 192 2 64 2 1 2 "redblue_3.jpg" 0 "left" 0.587225 1 0 0 190
3 193 2 65 2 2 4 "bluered_1.jpg" 1 "right" 0.520855 1 0 0 191
3 194 2 66 1 2 3 "redred_2.jpg" 1 "right" 0.427005 1 0 0 192
3 195 2 67 2 2 3 "bluered_2.jpg" 1 "right" 0.409801 1 0 0 193
3 196 2 68 2 1 2 "redblue_3.jpg" 0 "left" 0.283539 1 0 0 194
3 197 2 69 2 1 4 "redblue_1.jpg" 0 "left" 0.321459 1 0 0 195
3 198 2 70 2 1 3 "redblue_2.jpg" 0 "left" 0.416303 1 0 0 196
3 199 2 71 1 2 2 "redred_3.jpg" 1 "right" 0.272143 1 0 0 197
3 200 2 72 2 1 4 "redblue_1.jpg" 0 "left" 0.537642 1 0 0 198
3 201 2 73 1 1 1 "blueblue_4.jpg" 0 "left" 1.080347 1 0 0 199
3 202 2 74 1 1 3 "blueblue_2.jpg" 0 "left" 0.487643 1 0 0 200
3 203 2 75 1 2 2 "redred_3.jpg" 1 "right" 0.366464 1 0 0 201
3 204 2 76 1 2 4 "redred_1.jpg" 1 "right" 0.472107 1 0 0 202
3 205 2 77 2 1 2 "redblue_3.jpg" 0 "left" 0.625501 1 0 0 203
3 206 2 78 1 2 1 "redred_4.jpg" 1 "right" 0.841244 1 0 0 204
3 207 2 79 2 1 2 "redblue_3.jpg" 0 "left" 0.493293 1 0 0 205
3 208 2 80 1 1 4 "blueblue_1.jpg" 0 "left" 0.610499 1 0 0 206
3 209 2 81 2 1 1 "redblue_4.jpg" 0 "left" 0.426863 1 0 0 207
3 210 2 82 1 2 4 "redred_1.jpg" 1 "right" 0.300329 1 0 0 208
3 211 2 83 2 2 4 "bluered_1.jpg" 1 "right" 0.852402 1 0 0 209
3 212 2 84 1 2 2 "redred_3.jpg" 1 "right" 0.537748 1 0 0 210
3 213 2 85 1 2 1 "redred_4.jpg" 1 "right" 0.488027 1 0 0 211
3 214 2 86 1 1 1 "blueblue_4.jpg" 0 "left" 0.736508 1 0 0 212
3 215 2 87 1 2 4 "redred_1.jpg" 1 "right" 0.570421 1 0 0 213
3 216 2 88 1 1 4 "blueblue_1.jpg" 0 "left" 0.42127 1 0 0 214
3 217 2 89 2 1 1 "redblue_4.jpg" 0 "left" 0.488794 1 0 0 215
3 218 2 90 1 2 3 "redred_2.jpg" 1 "right" 0.588226 1 0 0 216
3 219 2 91 2 2 1 "bluered_4.jpg" 1 "right" 0.372171 1 0 0 217
3 220 2 92 1 1 3 "blueblue_2.jpg" 0 "left" 0.282997 1 0 0 218
3 221 2 93 2 1 4 "redblue_1.jpg" 0 "left" 0.349017 1 0 0 219
3 222 2 94 1 2 4 "redred_1.jpg" 1 "right" 0.521022 1 0 0 220
3 223 2 95 2 2 2 "bluered_3.jpg" 1 "right" 0.57087 1 0 0 221
3 224 2 96 2 1 2 "redblue_3.jpg" 0 "left" 0.366143 1 0 0 222
3 225 2 97 2 1 1 "redblue_4.jpg" 0 "left" 0.393601 1 0 0 223
3 226 2 98 2 1 4 "redblue_1.jpg" 0 "left" 0.338672 1 0 0 224
3 227 2 99 2 2 4 "bluered_1.jpg" 1 "right" 0.343608 1 0 0 225
3 228 2 100 1 2 4 "redred_1.jpg" 1 "right" 0.919328 1 0 0 226
3 229 2 101 2 2 3 "bluered_2.jpg" 1 "right" 0.421446 1 0 0 227
3 230 2 102 1 2 3 "redred_2.jpg" 1 "right" 0.515583 1 0 0 228
3 231 2 103 1 2 1 "redred_4.jpg" 1 "right" 0.444027 1 0 0 229
3 232 2 104 2 1 4 "redblue_1.jpg" 0 "left" 0.332974 1 0 0 230
3 233 2 105 1 2 3 "redred_2.jpg" 1 "right" 0.448933 1 0 0 231
3 234 2 106 2 2 4 "bluered_1.jpg" 1 "right" 0.410044 1 0 0 232
3 235 2 107 2 2 4 "bluered_1.jpg" 1 "right" 0.383304 1 0 0 233
3 236 2 108 1 1 3 "blueblue_2.jpg" 0 "left" 0.350058 1 0 0 234
3 237 2 109 1 2 4 "redred_1.jpg" 1 "right" 0.438558 1 0 0 235
3 238 2 110 2 1 1 "redblue_4.jpg" 0 "left" 0.349905 1 0 0 236
3 239 2 111 2 1 1 "redblue_4.jpg" 0 "left" 0.509722 1 0 0 237
3 240 2 112 1 2 4 "redred_1.jpg" 1 "right" 0.410392 1 0 0 238
3 241 2 113 1 1 2 "blueblue_3.jpg" 0 "left" 0.714382 1 0 0 239
3 242 2 114 2 2 3 "bluered_2.jpg" 1 "right" 0.626094 1 0 0 240
3 243 2 115 2 2 1 "bluered_4.jpg" 1 "right" 0.405165 1 0 0 241
3 244 2 116 1 2 1 "redred_4.jpg" 1 "right" 0.383112 1 0 0 242
3 245 2 117 2 1 1 "redblue_4.jpg" 0 "left" 0.388368 1 0 0 243
3 246 2 118 1 1 4 "blueblue_1.jpg" 0 "left" 0.570844 1 0 0 244
3 247 2 119 2 1 1 "redblue_4.jpg" 0 "left" 0.482498 1 0 0 245
3 248 2 120 2 1 1 "redblue_4.jpg" 0 "left" 0.459856 1 0 0 246
3 249 2 121 2 2 1 "bluered_4.jpg" 1 "right" 0.852428 1 0 0 247
3 250 2 122 2 1 2 "redblue_3.jpg" 0 "left" 0.681606 1 0 0 248
3 251 2 123 1 1 4 "blueblue_1.jpg" 0 "left" 0.477174 1 0 0 249
3 252 2 124 1 1 3 "blueblue_2.jpg" 0 "left" 0.604665 1 0 0 250
3 253 2 125 1 1 2 "blueblue_3.jpg" 0 "left" 0.388938 1 0 0 251
3 254 2 126 1 2 2 "redred_3.jpg" 1 "right" 0.543593 1 0 0 252
3 255 2 127 1 2 3 "redred_2.jpg" 1 "right" 0.721083 1 0 0 253
3 256 2 128 2 1 2 "redblue_3.jpg" 0 "left" 0.416165 1 0 0 254
3 257 3 1 1 1 2 "blueblue_3.jpg" 0 "left" 0.730906 1 0 0 255
3 258 3 2 2 1 4 "redblue_1.jpg" 0 "left" 0.415659 1 0 0 256
3 259 3 3 2 1 3 "redblue_2.jpg" 0 "left" 0.482732 1 0 0 257
3 260 3 4 2 1 1 "redblue_4.jpg" 0 "left" 0.47089 1 0 0 258
3 261 3 5 2 2 3 "bluered_2.jpg" 1 "right" 0.409705 1 0 0 259
3 262 3 6 1 1 2 "blueblue_3.jpg" 0 "left" 0.416099 1 0 0 260
3 263 3 7 2 2 2 "bluered_3.jpg" 1 "right" 0.532042 1 0 0 261
3 264 3 8 1 2 1 "redred_4.jpg" 1 "right" 0.636936 1 0 0 262
3 265 3 9 2 1 4 "redblue_1.jpg" 0 "left" 0.549644 1 0 0 263
3 266 3 10 1 2 2 "redred_3.jpg" 1 "right" 0.421108 1 0 0 264
3 267 3 11 1 1 2 "blueblue_3.jpg" 0 "left" 0.67097 1 0 0 265
3 268 3 12 2 1 4 "redblue_1.jpg" 0 "left" 0.554338 1 0 0 266
3 269 3 13 2 1 2 "redblue_3.jpg" 0 "left" 0.869941 1 0 0 267
3 270 3 14 1 1 2 "blueblue_3.jpg" 0 "left" 0.49314 1 0 0 268
3 271 3 15 2 2 3 "bluered_2.jpg" 1 "right" 0.809388 1 0 0 269
3 272 3 16 2 1 1 "redblue_4.jpg" 0 "left" 1.356235 1 0 0 270
3 273 3 17 2 2 2 "bluered_3.jpg" 1 "right" 0.532717 1 0 0 271
3 274 3 18 1 2 2 "redred_3.jpg" 1 "right" 0.592653 1 0 0 272
3 275 3 19 1 2 1 "redred_4.jpg" 1 "right" 0.532391 1 0 0 273
3 276 3 20 2 1 1 "redblue_4.jpg" 0 "left" 0.665618 1 0 0 274
3 277 3 21 1 1 3 "blueblue_2.jpg" 0 "left" 0.549153 1 0 0 275
3 278 3 22 2 1 2 "redblue_3.jpg" 0 "left" 0.48222 1 0 0 276
3 279 3 23 2 2 4 "bluered_1.jpg" 1 "right" 1.267866 1 0 0 277
3 280 3 24 1 2 1 "redred_4.jpg" 1 "right" 0.536884 1 0 0 278
3 281 3 25 2 1 1 "redblue_4.jpg" 0 "left" 0.421649 1 0 0 279
3 282 3 26 2 1 3 "redblue_2.jpg" 0 "left" 0.460343 1 0 0 280
3 283 3 27 1 1 2 "blueblue_3.jpg" 0 "left" 0.476813 1 0 0 281
3 284 3 28 2 2 1 "bluered_4.jpg" 1 "right" 0.669915 1 0 0 282
3 285 3 29 1 2 3 "redred_2.jpg" 1 "right" 0.553221 1 0 0 283
3 286 3 30 1 2 4 "redred_1.jpg" 1 "right" 0.608541 1 0 0 284
3 287 3 31 1 2 2 "redred_3.jpg" 1 "right" 0.454535 1 0 0 285
3 288 3 32 1 1 1 "blueblue_4.jpg" 0 "left" 0.310609 1 0 0 286
3 289 3 33 1 1 1 "blueblue_4.jpg" 0 "left" 0.388273 1 0 0 287
3 290 3 34 1 1 3 "blueblue_2.jpg" 0 "left" 0.465756 1 0 0 288
3 291 3 35 2 2 3 "bluered_2.jpg" 1 "right" 0.360221 1 0 0 289
3 292 3 36 2 1 1 "redblue_4.jpg" 0 "left" 0.620626 1 0 0 290
3 293 3 37 1 2 2 "redred_3.jpg" 1 "right" 0.576518 1 0 0 291
3 294 3 38 1 1 1 "blueblue_4.jpg" 0 "left" 0.648335 1 0 0 292
3 295 3 39 2 1 1 "redblue_4.jpg" 0 "left" 0.514892 1 0 0 293
3 296 3 40 1 1 3 "blueblue_2.jpg" 0 "left" 0.59828 1 0 0 294
3 297 3 41 2 2 2 "bluered_3.jpg" 1 "right" 0.603703 1 0 0 295
3 298 3 42 1 1 1 "blueblue_4.jpg" 0 "left" 0.714659 1 0 0 296
3 299 3 43 1 2 4 "redred_1.jpg" 1 "right" 0.614726 1 0 0 297
3 300 3 44 2 1 1 "redblue_4.jpg" 0 "left" 0.609294 1 0 0 298
3 301 3 45 2 1 3 "redblue_2.jpg" 0 "left" 0.505093 1 0 0 299
3 302 3 46 2 2 2 "bluered_3.jpg" 1 "right" 0.53266 1 0 0 300
3 303 3 47 2 2 1 "bluered_4.jpg" 1 "right" 0.498975 1 0 0 301
3 304 3 48 2 1 3 "redblue_2.jpg" 0 "left" 0.581625 1 0 0 302
3 305 3 49 2 1 4 "redblue_1.jpg" 0 "left" 0.570617 1 0 0 303
3 306 3 50 2 2 4 "bluered_1.jpg" 1 "right" 0.355369 1 0 0 304
3 307 3 51 1 1 3 "blueblue_2.jpg" 0 "left" 0.481673 1 0 0 305
3 308 3 52 1 1 1 "blueblue_4.jpg" 0 "left" 0.786842 1 0 0 306
3 309 3 53 1 2 3 "redred_2.jpg" 1 "right" 0.792189 1 0 0 307
3 310 3 54 1 1 2 "blueblue_3.jpg" 0 "left" 1.124331 1 0 0 308
3 311 3 55 2 1 3 "redblue_2.jpg" 0 "left" 0.44916 1 0 0 309
3 312 3 56 2 2 4 "bluered_1.jpg" 1 "right" 0.559716 1 0 0 310
3 313 3 57 1 2 2 "redred_3.jpg" 1 "right" 0.42094 1 0 0 311
3 314 3 58 1 1 4 "blueblue_1.jpg" 0 "left" 0.570973 1 0 0 312
3 315 3 59 2 1 2 "redblue_3.jpg" 0 "left" 0.570879 1 0 0 313
3 316 3 60 2 1 1 "redblue_4.jpg" 0 "left" 0.547914 1 0 0 314
3 317 3 61 1 2 1 "redred_4.jpg" 1 "right" 0.746769 1 0 0 315
3 318 3 62 1 1 4 "blueblue_1.jpg" 0 "left" 0.481683 1 0 0 316
3 319 3 63 1 1 3 "blueblue_2.jpg" 0 "left" 0.979348 1 0 0 317
3 320 3 64 1 2 3 "redred_2.jpg" 1 "right" 0.548173 1 0 0 318
3 321 3 65 2 1 4 "redblue_1.jpg" 1 "right" 0.609838 0 0 0 318
3 322 3 66 2 2 1 "bluered_4.jpg" 1 "right" 0.986997 1 0 0 319
3 323 3 67 1 2 3 "redred_2.jpg" 1 "right" 0.996201 1 0 0 320
3 324 3 68 1 1 2 "blueblue_3.jpg" 0 "left" 0.859001 1 0 0 321
3 325 3 69 1 1 1 "blueblue_4.jpg" 0 "left" 0.962633 1 0 0 322
3 326 3 70 2 1 4 "redblue_1.jpg" 0 "left" 0.515325 1 0 0 323
3 327 3 71 1 2 4 "redred_1.jpg" 1 "right" 0.376652 1 0 0 324
3 328 3 72 1 1 4 "blueblue_1.jpg" 0 "left" 1.284375 1 0 0 325
3 329 3 73 1 1 3 "blueblue_2.jpg" 0 "left" 0.493801 1 0 0 326
3 330 3 74 2 2 4 "bluered_1.jpg" 1 "right" 0.632114 1 0 0 327
3 331 3 75 2 2 4 "bluered_1.jpg" 1 "right" 1.063358 1 0 0 328
3 332 3 76 2 2 1 "bluered_4.jpg" 1 "right" 0.454895 1 0 0 329
3 333 3 77 1 2 4 "redred_1.jpg" 1 "right" 0.509925 1 0 0 330
3 334 3 78 2 2 1 "bluered_4.jpg" 1 "right" 0.609471 1 0 0 331
3 335 3 79 1 1 3 "blueblue_2.jpg" 0 "left" 0.454842 1 0 0 332
3 336 3 80 1 2 3 "redred_2.jpg" 1 "right" 0.515361 1 0 0 333
3 337 3 81 1 2 2 "redred_3.jpg" 1 "right" 0.471091 1 0 0 334
3 338 3 82 2 1 2 "redblue_3.jpg" 0 "left" 0.509827 1 0 0 335
3 339 3 83 2 2 3 "bluered_2.jpg" 1 "right" 0.609622 1 0 0 336
3 340 3 84 2 1 4 "redblue_1.jpg" 0 "left" 0.509738 1 0 0 337
3 341 3 85 1 1 1 "blueblue_4.jpg" 0 "left" 0.537694 1 0 0 338
3 342 3 86 2 1 3 "redblue_2.jpg" 0 "left" 0.35444 1 0 0 339
3 343 3 87 2 2 1 "bluered_4.jpg" 1 "right" 0.444248 1 0 0 340
3 344 3 88 2 2 4 "bluered_1.jpg" 1 "right" 0.349338 1 0 0 341
3 345 3 89 1 1 3 "blueblue_2.jpg" 0 "left" 0.482302 1 0 0 342
3 346 3 90 1 1 1 "blueblue_4.jpg" 0 "left" 0.404614 1 0 0 343
3 347 3 91 1 1 4 "blueblue_1.jpg" 0 "left" 0.488058 1 0 0 344
3 348 3 92 1 2 4 "redred_1.jpg" 1 "right" 0.504272 1 0 0 345
3 349 3 93 2 2 2 "bluered_3.jpg" 1 "right" 1.316961 1 0 0 346
3 350 3 94 2 1 3 "redblue_2.jpg" 0 "left" 0.559625 1 0 0 347
3 351 3 95 1 2 4 "redred_1.jpg" 1 "right" 1.372301 1 0 0 348
3 352 3 96 1 2 1 "redred_4.jpg" 1 "right" 0.542342 1 0 0 349
3 353 3 97 1 1 2 "blueblue_3.jpg" 0 "left" 0.43227 1 0 0 350
3 354 3 98 1 1 3 "blueblue_2.jpg" 0 "left" 0.371959 1 0 0 351
